time,seconds_elapsed,z,y,x
1776193346534023700,0.106023681640625,-0.13135051727294922,-0.030756235122680664,-0.002915889024734497
1776193346550049300,0.12204931640625,-0.13486480712890625,-0.02887105941772461,-0.020619988441467285
1776193346566076700,0.13807666015625,-0.10985851287841797,-0.02059340476989746,-0.06407971680164337
1776193346582102300,0.154102294921875,-0.049950599670410156,-0.006644487380981445,-0.07201878726482391
1776193346598126300,0.170126220703125,0.09420108795166016,0.0166623592376709,-0.04996749758720398
1776193346614145000,0.18614501953125,0.1865224838256836,0.017151355743408203,-0.023918405175209045
1776193346630160400,0.202160400390625,0.19399738311767578,0.004089832305908203,0.045058101415634155
1776193346646179300,0.218179443359375,0.16050338745117188,0.013137340545654297,0.043009042739868164
1776193346662202600,0.23420263671875,0.14855194091796875,0.013170957565307617,-0.010658025741577148
1776193346678220000,0.250219970703125,0.16065597534179688,0.02223372459411621,0.007952898740768433
1776193346694235000,0.26623486328125,0.056862831115722656,0.02395176887512207,0.02771705389022827
1776193346710250500,0.28225048828125,-0.08391380310058594,0.041105031967163086,0.01648646593093872
1776193346726263600,0.298263671875,-0.1065511703491211,0.023125171661376953,-0.0018217861652374268
1776193346742283800,0.31428369140625,-0.1062307357788086,-0.023933887481689453,-0.031210556626319885
1776193346758300000,0.3302998046875,-0.07041358947753906,-0.020051240921020508,-0.03659456968307495
1776193346774323200,0.3463232421875,0.0249786376953125,0.029265880584716797,0.015125364065170288
1776193346790344200,0.36234423828125,0.05573081970214844,-0.0003762245178222656,0.018379151821136475
1776193346806361300,0.378361328125,0.06262969970703125,0.008046865463256836,0.015696555376052856
1776193346822380300,0.39438037109375,0.12815475463867188,0.03693389892578125,0.036108702421188354
1776193346838397700,0.410397705078125,0.13049602508544922,0.05402398109436035,0.02326434850692749
1776193346854414300,0.426414306640625,0.10901451110839844,0.03951120376586914,-0.009007811546325684
1776193346870438000,0.44243798828125,0.06625938415527344,0.004578113555908203,-0.016453951597213745
1776193346886462000,0.4584619140625,0.052154541015625,0.03222322463989258,-0.03098990023136139
1776193346902488600,0.474488525390625,0.10027599334716797,0.007307767868041992,-0.012121498584747314
1776193346918510000,0.490510009765625,0.05303478240966797,-0.03836560249328613,-0.010916382074356079
1776193346934532900,0.506532958984375,-0.03949546813964844,-0.03698587417602539,-0.03140544891357422
1776193346950554400,0.522554443359375,-0.051163673400878906,-0.04543924331665039,-0.019540905952453613
1776193346966579000,0.538578857421875,-0.03449821472167969,-0.040350914001464844,0.005244731903076172
1776193346982604000,0.55460400390625,-0.013161659240722656,-0.015763282775878906,-0.01903960108757019
1776193346998617000,0.5706171875,0.02969074249267578,-0.014899253845214844,-0.029635027050971985
1776193347014635500,0.586635498046875,0.041426658630371094,0.010016679763793945,-0.022257357835769653
1776193347030657300,0.6026572265625,0.060207366943359375,0.009413003921508789,-0.00011336803436279297
1776193347046674400,0.61867431640625,0.11002635955810547,0.011584758758544922,0.014720410108566284
1776193347062696000,0.634696044921875,0.1360464096069336,0.03945112228393555,-0.013159066438674927
1776193347078711300,0.650711181640625,0.13125228881835938,0.027644634246826172,0.02639177441596985
1776193347094729200,0.666729248046875,0.10756492614746094,0.005009651184082031,-0.002275228500366211
1776193347110745300,0.682745361328125,0.06500053405761719,0.014659881591796875,-0.04718269407749176
1776193347126755300,0.69875537109375,0.027383804321289062,-0.0002262592315673828,-0.07117985188961029
1776193347142773000,0.71477294921875,-0.03424644470214844,-0.019423484802246094,-0.008012652397155762
1776193347158791000,0.730791015625,-0.04580497741699219,0.0053598880767822266,0.002388179302215576
1776193347174809900,0.746809814453125,-0.047829627990722656,-0.015246868133544922,0.011096745729446411
1776193347190828800,0.762828857421875,-0.04515266418457031,0.0028083324432373047,0.03425121307373047
1776193347206848800,0.778848876953125,-0.033188819885253906,0.0003142356872558594,0.023362427949905396
1776193347222865000,0.794864990234375,0.050037384033203125,0.028879165649414062,-0.008714765310287476
1776193347238876000,0.8108759765625,0.13800621032714844,0.04102587699890137,-0.03236335515975952
1776193347254890200,0.82689013671875,0.10663890838623047,0.015843629837036133,-0.01903820037841797
1776193347270899200,0.842899169921875,0.13780593872070312,0.015828847885131836,-0.006008893251419067
1776193347286908400,0.858908447265625,0.12842750549316406,-0.0063588619232177734,-0.02680310606956482
1776193347302924500,0.874924560546875,0.09033775329589844,-0.028431415557861328,-0.04432313144207001
1776193347318944000,0.890944091796875,0.021272659301757812,-0.03439164161682129,0.000525742769241333
1776193347334961200,0.906961181640625,-0.023833274841308594,-0.04540657997131348,0.027807533740997314
1776193347350983200,0.922983154296875,-0.07403850555419922,-0.029124736785888672,0.00282934308052063
1776193347367010300,0.93901025390625,-0.06454944610595703,-0.0027174949645996094,-0.0019820332527160645
1776193347383031800,0.95503173828125,-0.06467437744140625,-0.019268274307250977,0.00538066029548645
1776193347399052300,0.97105224609375,-0.0672311782836914,0.00736546516418457,-0.013007581233978271
1776193347415074600,0.987074462890625,-0.01253509521484375,0.025314807891845703,-0.038644835352897644
1776193347431092700,1.0030927734375,0.07533931732177734,0.044862985610961914,-0.029676735401153564
1776193347447110400,1.0191103515625,0.14401912689208984,0.05764198303222656,0.008444219827651978
1776193347463125800,1.035125732421875,0.12454414367675781,0.044898271560668945,0.03024953603744507
1776193347479138600,1.051138671875,0.09328365325927734,0.060123443603515625,0.056662291288375854
1776193347495156500,1.067156494140625,0.0836629867553711,0.06045842170715332,0.014779418706893921
1776193347511172900,1.0831728515625,0.05498981475830078,0.05072379112243652,-0.048188671469688416
1776193347527190000,1.09918994140625,0.0742645263671875,0.033421993255615234,-0.05513946712017059
1776193347543205000,1.115205078125,0.043503761291503906,0.0007336139678955078,-0.023834526538848877
1776193347559218700,1.13121875,-0.001537322998046875,-0.022708415985107422,-0.04540450870990753
1776193347575243000,1.147242919921875,-0.037192344665527344,-0.05012011528015137,-0.028789490461349487
1776193347591264800,1.1632646484375,-0.03248405456542969,-0.052186012268066406,-0.0119476318359375
1776193347607287300,1.179287353515625,-0.004185676574707031,-0.04562640190124512,-0.006694495677947998
1776193347623315000,1.19531494140625,0.03611946105957031,-0.0272977352142334,-0.0010167062282562256
1776193347639337200,1.211337158203125,0.050251007080078125,-0.0240781307220459,0.01469796895980835
1776193347655358700,1.227358642578125,0.04294776916503906,-0.009402036666870117,-0.007601678371429443
1776193347671377200,1.243377197265625,0.04498863220214844,0.006318092346191406,-0.01598268747329712
1776193347687394800,1.259394775390625,0.08270835876464844,-0.007956504821777344,0.03436407446861267
1776193347703409700,1.27540966796875,0.07018470764160156,0.004072666168212891,-0.00002619624137878418
1776193347719425500,1.291425537109375,0.04606914520263672,0.02411198616027832,0.01791626214981079
1776193347735444500,1.307444580078125,0.02447986602783203,0.043466806411743164,0.03450822830200195
1776193347751465700,1.3234658203125,0.03625011444091797,0.010634660720825195,-0.00007262825965881348
1776193347767488500,1.339488525390625,0.059970855712890625,-0.017213821411132812,-0.0258980393409729
1776193347783509200,1.35550927734375,0.021587371826171875,-0.014371871948242188,-0.04367975890636444
1776193347799527200,1.371527099609375,0.026253700256347656,0.01505732536315918,0.0051163434982299805
1776193347815542000,1.3875419921875,0.016541481018066406,0.013366222381591797,0.004107803106307983
1776193347831561700,1.403561767578125,-0.0025587081909179688,-0.008369684219360352,0.013368695974349976
1776193347855587000,1.427587158203125,-0.0193634033203125,0.04186248779296875,0.005769312381744385
1776193347871607800,1.44360791015625,0.004336357116699219,0.0522000789642334,0.01755768060684204
1776193347887629800,1.4596298828125,0.05912971496582031,0.03387761116027832,0.008323311805725098
1776193347903649300,1.475649169921875,0.042263031005859375,0.055585384368896484,-0.03227780759334564
1776193347919670800,1.4916708984375,0.07581138610839844,0.03627157211303711,-0.07746574282646179
1776193347935694000,1.507694091796875,0.09021568298339844,-0.011463642120361328,-0.02742624282836914
1776193347951708700,1.523708740234375,0.05434894561767578,-0.027857065200805664,0.02296137809753418
1776193347967718700,1.53971875,0.05422019958496094,-0.022008180618286133,-0.014707833528518677
1776193347983732200,1.555732177734375,0.06121063232421875,-0.054454803466796875,-0.009492844343185425
1776193347999747600,1.57174755859375,0.037261962890625,-0.02804422378540039,-0.007462173700332642
1776193348015768300,1.587768310546875,-0.02227306365966797,-0.015202999114990234,-0.03974977135658264
1776193348031789600,1.60378955078125,-0.08173370361328125,-0.012207984924316406,-0.034037262201309204
1776193348047812400,1.619812255859375,-0.0959615707397461,0.02299332618713379,-0.00907471776008606
1776193348063834000,1.635834228515625,-0.021869659423828125,0.018666505813598633,-0.0036323368549346924
1776193348079859500,1.651859375,0.057059288024902344,0.03821396827697754,-0.0016728341579437256
1776193348095882500,1.667882568359375,0.0814828872680664,0.029088735580444336,0.021400809288024902
1776193348111903500,1.683903564453125,0.04891490936279297,0.010912179946899414,0.04826074838638306
1776193348127929300,1.699929443359375,0.008861541748046875,0.015390157699584961,0.04304853081703186
1776193348143952400,1.715952392578125,0.01604747772216797,0.0176846981048584,0.04373857378959656
1776193348159976400,1.7319765625,0.046848297119140625,0.03812599182128906,-0.003432750701904297
1776193348176002000,1.748001953125,0.0322723388671875,0.01993560791015625,-0.05906176567077637
1776193348192024000,1.764024169921875,0.008379936218261719,0.0008046627044677734,-0.046538665890693665
1776193348208045800,1.7800458984375,0.029932022094726562,0.024887800216674805,-0.019099652767181396
1776193348224068400,1.796068359375,0.04422760009765625,-0.00584864616394043,-0.03895494341850281
1776193348240092700,1.8120927734375,0.020364761352539062,-0.03004598617553711,-0.0037017762660980225
1776193348256112000,1.828112060546875,-0.017600059509277344,-0.02673172950744629,-0.0059555768966674805
1776193348272136400,1.844136474609375,-0.031922340393066406,-0.029448986053466797,0.002358943223953247
1776193348288156400,1.860156494140625,-0.017791748046875,-0.03816628456115723,-0.015697568655014038
1776193348304176000,1.876176025390625,0.010506629943847656,-0.03879380226135254,-0.024734318256378174
1776193348320192800,1.89219287109375,0.02679920196533203,0.010992050170898438,0.004658788442611694
1776193348336205000,1.908205078125,0.02156829833984375,-0.00636601448059082,0.01734060049057007
1776193348352224300,1.924224365234375,0.021104812622070312,0.005104541778564453,-0.003531932830810547
1776193348368239600,1.940239501953125,0.0660543441772461,0.004950284957885742,-0.010201096534729004
1776193348384263700,1.956263671875,0.08965015411376953,0.035164594650268555,-0.015042126178741455
1776193348400284200,1.9722841796875,0.07774639129638672,0.03971695899963379,0.010895580053329468
1776193348416300500,1.988300537109375,0.025437355041503906,0.0023636817932128906,0.010000377893447876
1776193348432312600,2.0043125,0.016021728515625,0.013691902160644531,0.00005602836608886719
1776193348448335000,2.020335205078125,0.0328216552734375,-0.003254413604736328,-0.038111090660095215
1776193348464352300,2.036352294921875,-0.005324363708496094,0.005588531494140625,-0.01381191611289978
1776193348480369000,2.052368896484375,-0.033867835998535156,0.028657913208007812,0.027515947818756104
1776193348496387000,2.068386962890625,-0.02187347412109375,0.028392791748046875,-0.01188284158706665
1776193348512401200,2.084401123046875,-0.0026502609252929688,0.03989243507385254,-0.024844348430633545
1776193348528422100,2.100422119140625,-0.05036163330078125,0.0270845890045166,-0.01922103762626648
1776193348544443000,2.11644287109375,0.014169692993164062,0.020309925079345703,0.01009213924407959
1776193348560465000,2.13246484375,0.06885814666748047,0.0001804828643798828,0.009253919124603271
1776193348576487000,2.14848681640625,0.10458660125732422,-0.008824348449707031,-0.024856656789779663
1776193348592506400,2.16450634765625,0.11426353454589844,-0.03091907501220703,-0.011921286582946777
1776193348608532700,2.18053271484375,0.08112049102783203,-0.03237748146057129,-0.03944994509220123
1776193348624563200,2.196563232421875,0.014533042907714844,-0.04357600212097168,-0.03704468905925751
1776193348640586200,2.212586181640625,-0.045050621032714844,-0.025292158126831055,-0.005877971649169922
1776193348656612600,2.228612548828125,-0.044974327087402344,-0.013619184494018555,0.008239150047302246
1776193348672642000,2.24464208984375,-0.051980018615722656,-0.012153148651123047,0.016893088817596436
1776193348688663300,2.260663330078125,-0.08763980865478516,0.0032470226287841797,0.014409422874450684
1776193348704688000,2.276688232421875,-0.07320213317871094,-0.004530429840087891,0.011961162090301514
1776193348720717300,2.29271728515625,-0.008889198303222656,0.044472694396972656,0.023931056261062622
1776193348736732700,2.308732666015625,0.031477928161621094,0.016886472702026367,0.004708737134933472
1776193348752753000,2.3247529296875,0.050484657287597656,0.034064292907714844,0.004068732261657715
1776193348768775400,2.340775390625,0.05997180938720703,0.041635990142822266,0.006394803524017334
1776193348784796200,2.356796142578125,0.05270099639892578,0.03972935676574707,0.019821375608444214
1776193348800818400,2.372818359375,0.06939125061035156,0.05687904357910156,0.03336182236671448
1776193348816838700,2.388838623046875,0.04322528839111328,0.034630775451660156,-0.007505625486373901
1776193348832856600,2.404856689453125,-0.001781463623046875,0.01112818717956543,-0.013188660144805908
1776193348848874800,2.420874755859375,0.005901336669921875,0.018619537353515625,0.015246391296386719
1776193348864898300,2.436898193359375,-0.031935691833496094,-0.024155139923095703,-0.03199811279773712
1776193348880923400,2.45292333984375,-0.09144878387451172,-0.0494842529296875,-0.06128709018230438
1776193348896946400,2.468946533203125,-0.0675191879272461,-0.03746294975280762,-0.006195574998855591
1776193348912969700,2.4849697265625,0.0038824081420898438,-0.01671624183654785,0.007533073425292969
1776193348928996600,2.50099658203125,-0.013326644897460938,-0.03647756576538086,-0.024931341409683228
1776193348945022500,2.5170224609375,0.00307464599609375,-0.020689725875854492,-0.03608347475528717
1776193348961046500,2.533046630859375,0.00762176513671875,-0.02454352378845215,-0.0017666220664978027
1776193348977066800,2.549066650390625,-0.00933837890625,-0.014199972152709961,0.001368016004562378
1776193348993093000,2.565093017578125,0.038105010986328125,-0.0027039051055908203,0.017795026302337646
1776193349009116000,2.581115966796875,0.015947341918945312,0.031037569046020508,0.003232032060623169
1776193349025138700,2.597138671875,0.06813240051269531,0.06900310516357422,-0.027686163783073425
1776193349041165600,2.61316552734375,0.08478069305419922,0.028844118118286133,-0.011457651853561401
1776193349057186300,2.629186279296875,0.04925060272216797,-0.006135225296020508,0.030123889446258545
1776193349073208300,2.645208251953125,0.01836872100830078,0.019193410873413086,0.034701377153396606
1776193349089230600,2.661230712890625,0.030559539794921875,0.008517265319824219,-0.011823415756225586
1776193349105256400,2.67725634765625,0.011765480041503906,-0.00520014762878418,-0.06984350085258484
1776193349121272800,2.69327294921875,-0.054612159729003906,-0.017480850219726562,-0.03242446482181549
1776193349137293600,2.70929345703125,-0.09486865997314453,-0.0071108341217041016,0.03934118151664734
1776193349153318000,2.72531787109375,-0.08999824523925781,0.004561662673950195,0.06045082211494446
1776193349169339600,2.741339599609375,-0.05430412292480469,0.007607460021972656,0.017329037189483643
1776193349185358000,2.757358154296875,0.019722938537597656,0.024832963943481445,-0.0035381019115448
1776193349201378800,2.77337890625,0.029230117797851562,0.012890100479125977,-0.015608876943588257
1776193349217399000,2.78939892578125,0.02441120147705078,0.012816190719604492,-0.018586620688438416
1776193349233422600,2.805422607421875,0.050518035888671875,0.008821964263916016,-0.05293379724025726
1776193349249445600,2.821445556640625,0.06696796417236328,-0.025675058364868164,-0.044230371713638306
1776193349265471000,2.837470947265625,0.059563636779785156,-0.024492979049682617,0.001554638147354126
1776193349281496000,2.85349609375,0.045172691345214844,-0.016912221908569336,0.0038385391235351562
1776193349297518000,2.86951806640625,-0.004761695861816406,-0.02297663688659668,-0.0025277137756347656
1776193349313535000,2.885534912109375,-0.0330352783203125,-0.015547990798950195,0.008807927370071411
1776193349329549600,2.901549560546875,-0.10438251495361328,-0.010776281356811523,0.00970923900604248
1776193349345564400,2.917564453125,-0.1257648468017578,0.016864538192749023,-0.010823041200637817
1776193349361586000,2.9335859375,-0.11641216278076172,0.003246784210205078,-0.01383720338344574
1776193349377598500,2.949598388671875,-0.03795051574707031,0.03906083106994629,-0.023100271821022034
1776193349393610800,2.96561083984375,0.026131629943847656,0.019991636276245117,-0.03594335913658142
1776193349409620000,2.981619873046875,0.042502403259277344,0.012256383895874023,0.027066528797149658
1776193349425636400,2.99763623046875,0.05424785614013672,0.03479433059692383,0.06268450617790222
1776193349441655300,3.0136552734375,0.06615543365478516,0.037325382232666016,0.061505407094955444
1776193349457680000,3.029679931640625,0.06389141082763672,0.04139995574951172,-0.02807067334651947
1776193349473701000,3.045701171875,0.014002799987792969,0.04931378364562988,-0.05433864891529083
1776193349489720300,3.06172021484375,-0.02858734130859375,0.037721872329711914,0.0018967390060424805
1776193349505743000,3.0777431640625,-0.04745006561279297,0.0031325817108154297,-0.028295502066612244
1776193349521761300,3.09376123046875,0.014718055725097656,0.008347511291503906,-0.012265563011169434
1776193349537780200,3.1097802734375,-0.0019292831420898438,-0.044802188873291016,-0.007490366697311401
1776193349553803800,3.1258037109375,-0.05657005310058594,-0.04173159599304199,-0.005884528160095215
1776193349569826800,3.141826904296875,-0.10407161712646484,-0.04344987869262695,0.004522770643234253
1776193349585843000,3.157843017578125,-0.05641937255859375,-0.037880897521972656,-0.02242816984653473
1776193349601867800,3.17386767578125,0.026781082153320312,-0.016386747360229492,-0.02310521900653839
1776193349617883100,3.189883056640625,0.0000476837158203125,-0.009998798370361328,-0.015077605843544006
1776193349633901800,3.20590185546875,-0.016715049743652344,0.013983011245727539,-0.005753770470619202
1776193349649921300,3.22192138671875,-0.009767532348632812,0.017417430877685547,0.017833977937698364
1776193349665940700,3.237940673828125,-0.0054225921630859375,-0.002153158187866211,-0.002115994691848755
1776193349681961000,3.2539609375,0.0803375244140625,0.04042506217956543,0.011892378330230713
1776193349697977600,3.2699775390625,0.08514595031738281,0.02839517593383789,0.016467779874801636
1776193349713992700,3.28599267578125,0.03530693054199219,0.005106449127197266,-0.01584358513355255
1776193349730013000,3.302012939453125,0.01178741455078125,0.01538705825805664,-0.014435499906539917
1776193349746029800,3.31802978515625,-0.0022363662719726562,-0.022031545639038086,-0.047469332814216614
1776193349762045000,3.334044921875,-0.04018402099609375,-0.016405105590820312,-0.05439518392086029
1776193349778066000,3.35006591796875,-0.044780731201171875,0.021196365356445312,-0.00507006049156189
1776193349794083600,3.36608349609375,-0.051918983459472656,-0.005143165588378906,0.01963314414024353
1776193349810100200,3.382100341796875,-0.06376361846923828,-0.012729406356811523,0.030437618494033813
1776193349826121500,3.39812158203125,-0.05167675018310547,0.022511005401611328,0.015268564224243164
1776193349842137300,3.414137451171875,-0.034920692443847656,0.010274171829223633,0.00575372576713562
1776193349858155500,3.430155517578125,0.0056819915771484375,0.015307188034057617,0.007318019866943359
1776193349874171600,3.446171630859375,0.01748180389404297,0.018297433853149414,-0.02506066858768463
1776193349890186200,3.462186279296875,0.06032085418701172,0.03136634826660156,-0.020309314131736755
1776193349906195000,3.47819482421875,0.08899593353271484,-0.001756906509399414,-0.028924360871315002
1776193349922202400,3.494202392578125,0.04389667510986328,-0.022297143936157227,-0.021747663617134094
1776193349938219000,3.510218994140625,-0.010669708251953125,-0.012166023254394531,-0.0003438889980316162
1776193349954240000,3.526239990234375,-0.036590576171875,-0.03290605545043945,0.010100364685058594
1776193349970260700,3.5422607421875,-0.05295562744140625,-0.024975299835205078,0.02183520793914795
1776193349986275300,3.558275390625,-0.06451702117919922,0.006740093231201172,0.02006000280380249
1776193350002295600,3.574295654296875,-0.07116985321044922,-0.0003867149353027344,0.013704061508178711
1776193350018306300,3.590306396484375,-0.10177230834960938,-0.012211799621582031,-0.014622509479522705
1776193350034322000,3.606322021484375,-0.08239269256591797,0.001077890396118164,-0.01836220920085907
1776193350050337500,3.622337646484375,-0.03697967529296875,0.008411407470703125,-0.01922251284122467
1776193350066350800,3.638350830078125,0.013140678405761719,0.023351669311523438,-0.001658022403717041
1776193350082367200,3.6543671875,0.061011314392089844,0.01864480972290039,0.03164482116699219
1776193350098384400,3.67038427734375,0.06371879577636719,0.03176546096801758,0.014196425676345825
1776193350114406700,3.68640673828125,-0.005107879638671875,0.017282724380493164,-0.01490810513496399
1776193350130426400,3.70242626953125,-0.03552436828613281,0.026430845260620117,0.00037530064582824707
1776193350146441500,3.71844140625,-0.049393653869628906,0.019625186920166016,-0.01460161805152893
1776193350162458000,3.7344580078125,-0.046835899353027344,0.007086277008056641,-0.0084342360496521
1776193350178475800,3.750475830078125,-0.03247642517089844,-0.01202082633972168,-0.0014703869819641113
1776193350194493200,3.7664931640625,0.0011720657348632812,-0.026957273483276367,-0.02277834713459015
1776193350210509300,3.78250927734375,-0.022439956665039062,-0.03786206245422363,-0.018499791622161865
1776193350226526200,3.798526123046875,-0.0676584243774414,-0.04134869575500488,0.02656078338623047
1776193350242539800,3.814539794921875,-0.07716655731201172,-0.029834270477294922,0.00886392593383789
1776193350258559000,3.83055908203125,0.006351470947265625,-0.02420806884765625,-0.05038870871067047
1776193350274579500,3.846579345703125,0.03490638732910156,0.00995779037475586,-0.0519990473985672
1776193350290599200,3.86259912109375,0.027957916259765625,0.001989603042602539,0.020481109619140625
1776193350306623700,3.878623779296875,0.019013404846191406,-0.019530534744262695,0.0969117283821106
1776193350322648000,3.89464794921875,-0.07840251922607422,0.017971277236938477,0.0017670392990112305
1776193350338674400,3.91067431640625,-0.09486770629882812,0.03535819053649902,-0.12272247672080994
1776193350354696000,3.926696044921875,0.029315948486328125,0.04589533805847168,-0.05723509192466736
1776193350370716700,3.942716552734375,0.09833621978759766,0.0071604251861572266,0.05788451433181763
1776193350386739700,3.95873974609375,0.09382438659667969,-0.010239362716674805,0.06998327374458313
1776193350402760700,3.9747607421875,0.03770637512207031,0.000896453857421875,0.04607045650482178
1776193350418788000,3.9907880859375,-0.05415534973144531,0.008548974990844727,-0.04371330142021179
1776193350434820900,4.00682080078125,-0.10129833221435547,0.014508962631225586,-0.06038035452365875
1776193350450847700,4.02284765625,-0.09174823760986328,0.0167996883392334,-0.034452736377716064
1776193350466871600,4.03887158203125,-0.08970260620117188,0.0015943050384521484,-0.016233384609222412
1776193350482905000,4.054905029296875,-0.0039615631103515625,0.04204964637756348,0.014763906598091125
1776193350498932700,4.0709326171875,-0.04490089416503906,0.060039520263671875,0.05564934015274048
1776193350514959600,4.086959716796875,-0.05769538879394531,0.03446197509765625,0.09658989310264587
1776193350530986200,4.102986328125,0.031815528869628906,0.006471395492553711,0.059189677238464355
1776193350547015400,4.119015380859375,0.011151313781738281,0.06463098526000977,0.004964128136634827
1776193350563042600,4.13504248046875,-0.12230205535888672,0.04244494438171387,0.004309237003326416
1776193350579072300,4.151072265625,-0.34778690338134766,0.047887325286865234,0.0003688335418701172
1776193350595100000,4.167099853515625,-0.13978195190429688,0.021075963973999023,-0.01570826768875122
1776193350611125200,4.183125244140625,0.2954988479614258,-0.1940138339996338,0.1357615739107132
1776193350627151000,4.199151123046875,0.21527385711669922,0.020842790603637695,0.021818138659000397
1776193350643182000,4.21518212890625,0.05292701721191406,0.059578895568847656,0.0789494588971138
1776193350659204000,4.2312041015625,-0.40078067779541016,0.14587116241455078,0.02141958847641945
1776193350675229700,4.247229736328125,-0.13776016235351562,0.19571375846862793,-0.03418366238474846
1776193350691258400,4.26325830078125,0.020150184631347656,0.04357790946960449,0.033775851130485535
1776193350707283000,4.279282958984375,-0.025603294372558594,-0.04526042938232422,0.03224032744765282
1776193350723303700,4.2953037109375,-0.15968894958496094,0.03523969650268555,-0.08322214335203171
1776193350739318800,4.31131884765625,-0.11647510528564453,0.07713651657104492,-0.07832691818475723
1776193350755337200,4.327337158203125,0.3201789855957031,0.031449079513549805,-0.05658769607543945
1776193350771359000,4.34335888671875,0.06477737426757812,-0.017400503158569336,0.09075136482715607
1776193350787379700,4.359379638671875,-0.29216957092285156,-0.17074203491210938,0.4211975634098053
1776193350803392500,4.375392578125,0.21435260772705078,0.28516697883605957,-0.033424437046051025
1776193350819405300,4.3914052734375,0.42958831787109375,-0.09772467613220215,-0.2251628339290619
1776193350835425300,4.40742529296875,-0.0018930435180664062,0.02916431427001953,-0.18674498796463013
1776193350851444200,4.4234443359375,-0.9530105590820312,0.22115588188171387,-0.3054197132587433
1776193350867464000,4.4394638671875,-0.1872415542602539,0.1969602108001709,-0.1254557967185974
1776193350883479800,4.455479736328125,0.46463775634765625,0.043096065521240234,-0.11137829720973969
1776193350899500300,4.471500244140625,0.7279548645019531,-0.10677695274353027,-0.07643014192581177
1776193350915526100,4.487526123046875,0.7065143585205078,-0.3006819486618042,-0.03127100691199303
1776193350931549700,4.5035498046875,0.4535255432128906,-0.02952265739440918,0.05744779855012894
1776193350947579000,4.519578857421875,0.2392902374267578,0.14261865615844727,0.013885736465454102
1776193350963600400,4.535600341796875,0.5533323287963867,-0.18784570693969727,-0.08331360667943954
1776193350979617500,4.551617431640625,0.8261680603027344,-0.9575412273406982,-0.21914492547512054
1776193350995643100,4.56764306640625,-0.3511686325073242,0.013259649276733398,-0.19070953130722046
1776193351011659500,4.583659423828125,-0.23376941680908203,0.710099458694458,0.14266929030418396
1776193351027672600,4.599672607421875,-0.4405698776245117,-0.2084484100341797,0.3601031005382538
1776193351043684600,4.6156845703125,-0.622100830078125,-0.3813784122467041,0.06637030839920044
1776193351059697200,4.631697265625,-0.5494842529296875,-0.12099933624267578,0.09776926040649414
1776193351075717400,4.64771728515625,-0.04293346405029297,-0.12740588188171387,-0.1100095808506012
1776193351091740400,4.663740478515625,0.13548755645751953,-0.1221930980682373,-0.19061791896820068
1776193351107758000,4.679758056640625,-0.050248146057128906,-0.059211015701293945,-0.06309771537780762
1776193351123780600,4.695780517578125,-0.4402647018432617,-0.1865828037261963,-0.15054675936698914
1776193351139800000,4.711800048828125,-0.3766937255859375,-0.08730816841125488,-0.19052952527999878
1776193351155819000,4.727819091796875,-0.16518878936767578,-0.20163965225219727,0.375837504863739
1776193351171842000,4.743842041015625,-0.0778360366821289,-0.028627634048461914,0.2952014207839966
1776193351187865600,4.759865478515625,-0.1618194580078125,-0.11574149131774902,0.25071918964385986
1776193351203884300,4.77588427734375,-0.031475067138671875,-0.21203207969665527,0.17645573616027832
1776193351219908900,4.791908935546875,0.48847293853759766,-0.2566990852355957,0.032894909381866455
1776193351235929000,4.80792919921875,0.681304931640625,-0.0011949539184570312,-0.07148224115371704
1776193351251950300,4.823950439453125,0.19559955596923828,0.2034592628479004,-0.09184086322784424
1776193351267973400,4.839973388671875,-0.2782278060913086,0.37708306312561035,-0.1989954113960266
1776193351283998500,4.85599853515625,-0.3166685104370117,0.2945284843444824,-0.09264051914215088
1776193351300026000,4.872026123046875,-0.31455230712890625,0.12245488166809082,0.005877137184143066
1776193351316053800,4.8880537109375,-0.3425874710083008,0.14606738090515137,-0.282245934009552
1776193351332076500,4.90407666015625,-0.5446386337280273,0.11004352569580078,-0.3157336711883545
1776193351348103400,4.920103515625,-0.6530227661132812,-0.06268596649169922,0.24204373359680176
1776193351364125400,4.93612548828125,-0.18659114837646484,-0.10194206237792969,0.31569039821624756
1776193351380149000,4.95214892578125,0.13697338104248047,0.020600318908691406,-0.14181435108184814
1776193351396171500,4.968171630859375,0.0059070587158203125,0.004834175109863281,-0.34581542015075684
1776193351412192300,4.984192138671875,-0.5041618347167969,-0.3250453472137451,-0.36228930950164795
1776193351428216600,5.000216552734375,-0.9654569625854492,-0.3330698013305664,-0.2136669158935547
1776193351444244200,5.016244140625,-0.6328859329223633,0.12128138542175293,-0.2434476613998413
1776193351460267000,5.03226708984375,0.25441837310791016,0.05043840408325195,-0.32815253734588623
1776193351476290800,5.048290771484375,1.3366994857788086,-0.0658566951751709,-0.890035092830658
1776193351492317200,5.064317138671875,0.9806222915649414,-0.012065410614013672,-0.4089210033416748
1776193351508341000,5.080341064453125,-0.02692413330078125,-0.16330957412719727,0.4593207836151123
1776193351524363500,5.096363525390625,-0.6123714447021484,-0.29507875442504883,0.9038870334625244
1776193351540380700,5.112380615234375,-0.22701740264892578,-0.13300347328186035,0.454012393951416
1776193351556403700,5.12840380859375,0.4654369354248047,0.0037784576416015625,-0.03025949001312256
1776193351572420900,5.1444208984375,0.8053207397460938,-0.045789480209350586,0.08421814441680908
1776193351588441900,5.16044189453125,0.48626041412353516,0.01104116439819336,0.14960527420043945
1776193351604464400,5.17646435546875,0.2808218002319336,0.03245949745178223,0.15195870399475098
1776193351620488000,5.192488037109375,0.11209964752197266,0.09012365341186523,0.33501720428466797
1776193351636507000,5.2085068359375,0.1433420181274414,0.0942995548248291,0.4631164073944092
1776193351652523300,5.224523193359375,0.12034034729003906,-0.02441263198852539,0.3666083812713623
1776193351668545500,5.240545654296875,-0.6064920425415039,-0.0820775032043457,0.23081350326538086
1776193351684567000,5.256567138671875,-0.3468656539916992,-0.060975074768066406,0.24904251098632812
1776193351700592000,5.272592041015625,-0.45849609375,-0.03156638145446777,-0.014316797256469727
1776193351716613000,5.288613037109375,-0.26662445068359375,0.02683877944946289,-0.0063495635986328125
1776193351732635000,5.304634765625,-0.00408935546875,-0.18062329292297363,0.08629798889160156
1776193351748655600,5.320655517578125,0.12694263458251953,-0.11876749992370605,-0.14585280418395996
1776193351764679400,5.336679443359375,-0.3604440689086914,-0.09698891639709473,-0.006567955017089844
1776193351780704300,5.352704345703125,-0.36397361755371094,-0.3120260238647461,0.25415658950805664
1776193351796730400,5.36873046875,-0.28735828399658203,0.05549311637878418,0.03601813316345215
1776193351812761600,5.38476171875,-0.3601083755493164,0.4064152240753174,-0.20903277397155762
1776193351828786700,5.40078662109375,-0.21289825439453125,0.08003664016723633,0.02858567237854004
1776193351844811000,5.41681103515625,-0.03606128692626953,-0.18043231964111328,0.049100637435913086
1776193351860829400,5.432829345703125,0.48746299743652344,-0.06871557235717773,-0.11508750915527344
1776193351876853200,5.448853271484375,0.49360084533691406,0.08855652809143066,-0.003355264663696289
1776193351892879000,5.464879150390625,0.299713134765625,0.10579204559326172,0.000278472900390625
1776193351908901000,5.480901123046875,0.1429443359375,0.04737997055053711,0.01403045654296875
1776193351924929300,5.49692919921875,-0.21045875549316406,-0.11498808860778809,-0.1327913999557495
1776193351940959700,5.512959716796875,0.15273475646972656,-0.21126341819763184,-0.2004631757736206
1776193351956985300,5.5289853515625,0.5401058197021484,-0.24360346794128418,-0.4601355791091919
1776193351973008000,5.5450078125,0.08604145050048828,0.016724586486816406,-0.1449136734008789
1776193351989031000,5.561031005859375,0.31865596771240234,0.4234752655029297,-0.5026733875274658
1776193352005059000,5.57705908203125,0.0038270950317382812,0.20463967323303223,-0.36317873001098633
1776193352021086500,5.59308642578125,-0.6213655471801758,-0.31590914726257324,0.1475067138671875
1776193352037112000,5.609112060546875,-0.363037109375,0.1389930248260498,0.6624011993408203
1776193352053134300,5.62513427734375,-0.26629638671875,-0.44161927700042725,0.010789871215820312
1776193352069153300,5.6411533203125,-0.6524543762207031,-0.3693211078643799,0.011053323745727539
1776193352085173000,5.657173095703125,-0.28269481658935547,-0.2702484130859375,0.4728415012359619
1776193352101193000,5.67319287109375,0.3251180648803711,-0.018558263778686523,0.631035566329956
1776193352117214000,5.6892138671875,-0.11531925201416016,-0.40032684803009033,0.8913266658782959
1776193352133236000,5.705236083984375,-0.15006542205810547,-0.717571496963501,0.6237781047821045
1776193352149256700,5.721256591796875,-0.043148040771484375,-0.47454559803009033,-0.046105384826660156
1776193352165279700,5.73727978515625,-0.3985586166381836,0.1779780387878418,-0.0667567253112793
1776193352181303000,5.753302978515625,0.31790733337402344,-0.014163732528686523,0.4069654941558838
1776193352197326000,5.769326171875,0.30146217346191406,-0.43230271339416504,0.4197218418121338
1776193352213343200,5.78534326171875,0.35643577575683594,-0.5909487009048462,0.692054033279419
1776193352229361400,5.801361328125,0.6120500564575195,-0.4789835214614868,0.6391267776489258
1776193352245377300,5.817377197265625,1.5110692977905273,-0.12279438972473145,0.3126378059387207
1776193352261392000,5.833391845703125,1.4722976684570312,-0.1699376106262207,0.09416460990905762
1776193352277412900,5.849412841796875,0.30036163330078125,-0.4232323169708252,0.399705171585083
1776193352293432800,5.865432861328125,-0.676905632019043,0.041138648986816406,-0.18720555305480957
1776193352309454600,5.88145458984375,-0.8282809257507324,-0.16339492797851562,-0.22757577896118164
1776193352325480200,5.897480224609375,-0.795257568359375,-0.46436643600463867,0.23545098304748535
1776193352341504300,5.913504150390625,-0.721799373626709,-0.5383706092834473,0.36568236351013184
1776193352357528300,5.9295283203125,-0.3808574676513672,-0.3305532932281494,0.32644128799438477
1776193352373548800,5.945548828125,0.38111400604248047,0.4476437568664551,-0.0621030330657959
1776193352389566700,5.961566650390625,0.1956501007080078,0.5737869739532471,-0.8402230739593506
1776193352405583000,5.9775830078125,-0.3842611312866211,0.8741402626037598,-1.1890195608139038
1776193352421603800,5.993603759765625,-0.5477666854858398,1.3761696815490723,-1.5106754302978516
1776193352437625300,6.009625244140625,-0.8747687339782715,1.5965514183044434,-1.1020097732543945
1776193352453644800,6.025644775390625,-0.66876220703125,0.11029696464538574,0.6104030609130859
1776193352469666800,6.041666748046875,-0.2978181838989258,0.117706298828125,-0.48627161979675293
1776193352485684700,6.057684814453125,-0.037270545959472656,-0.11685776710510254,-0.18286871910095215
1776193352501705200,6.073705322265625,0.11317825317382812,-0.03974556922912598,0.0706171989440918
1776193352517722600,6.08972265625,0.2535667419433594,-0.013336658477783203,0.08581852912902832
1776193352533735700,6.105735595703125,0.08360671997070312,-0.06600379943847656,-0.014863252639770508
1776193352549751000,6.1217509765625,-0.12534427642822266,-0.19594430923461914,-0.12765884399414062
1776193352565761500,6.137761474609375,0.022660255432128906,-0.18796515464782715,-0.17224597930908203
1776193352581775600,6.153775634765625,0.2024211883544922,-0.15514731407165527,-0.12066388130187988
1776193352597790200,6.169790283203125,-0.078155517578125,-0.32554054260253906,-0.25417566299438477
1776193352613810400,6.185810546875,-0.4299488067626953,-0.1657724380493164,-0.20675420761108398
1776193352629826300,6.201826416015625,-0.5912742614746094,0.001844167709350586,0.060744285583496094
1776193352645845000,6.217844970703125,-0.46478939056396484,-0.009854793548583984,0.037544965744018555
1776193352661864400,6.233864501953125,-0.43343544006347656,-0.1354684829711914,0.0606844425201416
1776193352677887700,6.2498876953125,-0.7684535980224609,-0.15420770645141602,-0.4190981388092041
1776193352693908000,6.265907958984375,0.09939384460449219,-0.0692129135131836,0.05466890335083008
1776193352709929200,6.28192919921875,0.032341957092285156,-0.5277624130249023,0.37810587882995605
1776193352725948200,6.2979482421875,0.3047037124633789,-0.1446382999420166,0.3205397129058838
1776193352741965600,6.313965576171875,0.8434562683105469,0.1479341983795166,0.3088374137878418
1776193352757984800,6.32998486328125,0.5331153869628906,-0.12193465232849121,0.12370967864990234
1776193352774005200,6.346005126953125,-0.060268402099609375,-0.1703968048095703,-0.23887300491333008
1776193352790028000,6.362028076171875,-0.34714508056640625,-0.07392644882202148,-0.35603857040405273
1776193352806055000,6.378054931640625,-0.30641937255859375,0.041915178298950195,-0.1453568935394287
1776193352822085000,6.394085205078125,-0.39958667755126953,0.03890681266784668,0.16748309135437012
1776193352838108400,6.4101083984375,-0.5241641998291016,-0.05758190155029297,0.22643589973449707
1776193352854130200,6.426130126953125,-0.5686435699462891,0.10603523254394531,0.2831308841705322
1776193352870145800,6.442145751953125,-0.30587005615234375,0.12119817733764648,0.16722393035888672
1776193352886162700,6.45816259765625,0.31716442108154297,0.09781408309936523,0.28481626510620117
1776193352902180000,6.47418017578125,0.47330665588378906,0.10198259353637695,0.16872692108154297
1776193352918198300,6.4901982421875,0.06231498718261719,-0.09354352951049805,0.23847436904907227
1776193352934217200,6.50621728515625,0.041179656982421875,0.09843134880065918,-0.1051177978515625
1776193352950237000,6.52223681640625,0.2760639190673828,0.15865850448608398,-0.22815680503845215
1776193352966261200,6.53826123046875,0.21394729614257812,-0.06740355491638184,0.20352935791015625
1776193352982284500,6.554284423828125,-0.103790283203125,-0.1519756317138672,0.05707573890686035
1776193352998307800,6.570307861328125,-0.3083324432373047,-0.13644647598266602,-0.028138399124145508
1776193353014327800,6.586327880859375,-0.3359050750732422,-0.001222848892211914,-0.2275099754333496
1776193353030349300,6.602349365234375,-0.05808067321777344,-0.26933789253234863,-0.41199350357055664
1776193353046371600,6.61837158203125,0.055568695068359375,-0.1381237506866455,-0.09250211715698242
1776193353070404400,6.642404296875,-0.5053176879882812,-0.12820076942443848,-0.1449425220489502
1776193353086423000,6.658423095703125,-0.4631528854370117,0.06011509895324707,-0.0537562370300293
1776193353102440700,6.674440673828125,-0.38445186614990234,-0.1293795108795166,-0.1302204132080078
1776193353118463000,6.690462890625,-0.43411731719970703,-0.3605637550354004,-0.12180757522583008
1776193353134486000,6.706486083984375,-0.6689796447753906,-0.9855074882507324,0.9187562465667725
1776193353150510800,6.7225107421875,-0.551666259765625,-0.5070726871490479,0.822324275970459
1776193353166536000,6.738535888671875,-0.8693609237670898,-0.39066481590270996,0.4217092990875244
1776193353182556700,6.754556640625,0.15599441528320312,0.2036445140838623,-0.6016802787780762
1776193353198584000,6.770583984375,0.5375471115112305,0.5069563388824463,-0.9631469249725342
1776193353214615600,6.786615478515625,0.2740316390991211,0.26242923736572266,-0.6531538963317871
1776193353230640600,6.802640625,0.23126220703125,0.009535551071166992,-0.496171236038208
1776193353246663200,6.8186630859375,0.0067386627197265625,-0.3038911819458008,-0.053530216217041016
1776193353262685700,6.834685791015625,-0.4439573287963867,-0.45792675018310547,-0.12880682945251465
1776193353278709000,6.850708984375,0.07520103454589844,0.10197830200195312,-0.5707845687866211
1776193353294737700,6.866737548828125,0.5767717361450195,0.48635149002075195,0.17640900611877441
1776193353310765600,6.882765625,0.7591724395751953,0.008966445922851562,1.0064058303833008
1776193353334801700,6.9068017578125,1.1625099182128906,0.22939395904541016,0.6104707717895508
1776193353350836700,6.922836669921875,0.9314517974853516,0.24627685546875,0.07904648780822754
1776193353366862800,6.93886279296875,0.24421119689941406,0.15755891799926758,-0.17094016075134277
1776193353382891300,6.954891357421875,-0.2929859161376953,-0.013261079788208008,-0.4030033349990845
1776193353398925000,6.970925048828125,-0.6923131942749023,-0.09299254417419434,-0.26440882682800293
1776193353414961000,6.9869609375,-0.3799772262573242,-0.2615969181060791,-0.05777621269226074
1776193353430989800,7.00298974609375,0.16201400756835938,-0.35742485523223877,0.0811769962310791
1776193353447014100,7.01901416015625,0.36275672912597656,-0.18655776977539062,0.13545489311218262
1776193353463040500,7.03504052734375,-0.016205787658691406,-0.15571069717407227,0.12295138835906982
1776193353479064600,7.051064697265625,-0.2915372848510742,0.03521919250488281,0.02854931354522705
1776193353495085000,7.0670849609375,-0.2838573455810547,0.2842905521392822,0.02995479106903076
1776193353511106600,7.0831064453125,-0.20979785919189453,0.3078005313873291,0.012784719467163086
1776193353527127300,7.099127197265625,-0.34243011474609375,0.3603975772857666,0.1687617301940918
1776193353543151600,7.115151611328125,-0.41521453857421875,0.4388134479522705,0.3687671422958374
1776193353559173000,7.131173095703125,-0.8371152877807617,0.34238672256469727,0.4175832271575928
1776193353575191800,7.14719189453125,-0.5891408920288086,0.3525223731994629,-0.3219184875488281
1776193353591211800,7.163211669921875,-0.6839323043823242,0.050048112869262695,-0.1442934274673462
1776193353607233500,7.179233642578125,-0.31140708923339844,-0.004500985145568848,-0.22729003429412842
1776193353623256000,7.195256103515625,0.29098987579345703,-0.11866319179534912,0.36650025844573975
1776193353639279400,7.211279296875,0.4576835632324219,-0.0966109037399292,0.46606338024139404
1776193353655303700,7.2273037109375,0.11565303802490234,-0.06850337982177734,0.16457808017730713
1776193353671331800,7.243331787109375,-0.016607284545898438,-0.07057607173919678,0.098052978515625
1776193353687356400,7.2593564453125,0.09309101104736328,-0.1645137071609497,0.23539364337921143
1776193353703375600,7.275375732421875,0.14214038848876953,-0.26551032066345215,0.15231108665466309
1776193353719399400,7.2913994140625,0.3728914260864258,-0.22791790962219238,-0.043759942054748535
1776193353735424800,7.3074248046875,0.45812320709228516,-0.280453085899353,-0.13821196556091309
1776193353751451100,7.323451171875,0.22370624542236328,-0.3575310707092285,-0.18072545528411865
1776193353767474200,7.33947412109375,0.0699005126953125,-0.2792479991912842,-0.19900286197662354
1776193353783494700,7.35549462890625,0.004351615905761719,-0.174177885055542,-0.16776412725448608
1776193353799510300,7.37151025390625,-0.15162372589111328,-0.10029089450836182,-0.09432917833328247
1776193353815527400,7.38752734375,-0.26569557189941406,0.07167589664459229,-0.2701701521873474
1776193353831542000,7.4035419921875,-0.24886703491210938,0.05902218818664551,-0.26410943269729614
1776193353847561700,7.419561767578125,-0.14288902282714844,-0.06129348278045654,-0.12459665536880493
1776193353863585800,7.435585693359375,-0.11080169677734375,0.06773662567138672,-0.35937967896461487
1776193353879608800,7.45160888671875,-0.20932674407958984,0.0944681167602539,-0.34236499667167664
1776193353895633200,7.467633056640625,-0.21428203582763672,0.03318643569946289,-0.18422794342041016
1776193353911662000,7.483662109375,-0.1357126235961914,0.09982991218566895,-0.016343891620635986
1776193353927689700,7.499689697265625,-0.10776901245117188,0.11900031566619873,0.004669785499572754
1776193353943721500,7.515721435546875,-0.008013725280761719,0.14459800720214844,-0.09340032935142517
1776193353959754800,7.531754638671875,0.06627655029296875,0.11458384990692139,-0.22824352979660034
1776193353975773700,7.547773681640625,0.1276712417602539,0.03778409957885742,-0.30266815423965454
1776193353991797200,7.56379736328125,0.044571876525878906,0.00842130184173584,-0.36253559589385986
1776193354007819300,7.5798193359375,-0.14367294311523438,-0.019854068756103516,-0.47060084342956543
1776193354023840300,7.59584033203125,-0.13654518127441406,-0.03237342834472656,-0.34868595004081726
1776193354039865600,7.611865478515625,0.19066619873046875,0.05831015110015869,-0.08325827121734619
1776193354055887600,7.6278876953125,0.25149059295654297,0.06051373481750488,0.12940174341201782
1776193354071913700,7.643913818359375,-0.026157379150390625,0.006529092788696289,0.12280803918838501
1776193354087938800,7.659938720703125,-0.2130908966064453,0.012932181358337402,0.008431285619735718
1776193354103965000,7.67596484375,-0.20937538146972656,0.0025826692581176758,-0.08017946779727936
1776193354119989200,7.6919892578125,-0.08612060546875,-0.10439407825469971,-0.14982596039772034
1776193354136014800,7.708014892578125,-0.039035797119140625,-0.12736999988555908,-0.1982489824295044
1776193354152043000,7.72404296875,-0.2140970230102539,-0.009143829345703125,-0.14847402274608612
1776193354168071200,7.7400712890625,-0.32468700408935547,0.019862771034240723,-0.009018316864967346
1776193354184095500,7.756095458984375,-0.18490886688232422,-0.0024213790893554688,0.07535088062286377
1776193354200121300,7.772121337890625,0.10766124725341797,0.03998696804046631,0.03755946457386017
1776193354216143600,7.7881435546875,0.1161642074584961,0.0344388484954834,0.024225011467933655
1776193354232163000,7.8041630859375,0.058170318603515625,0.03515207767486572,0.011185437440872192
1776193354248178700,7.8201787109375,0.20836639404296875,0.04790997505187988,0.06550583243370056
1776193354264194800,7.83619482421875,0.15535545349121094,0.02751469612121582,-0.06010046601295471
1776193354280209400,7.85220947265625,-0.07691764831542969,0.015118837356567383,-0.1784631609916687
1776193354296224000,7.86822412109375,-0.42980194091796875,-0.06058371067047119,-0.1372145116329193
1776193354312241400,7.884241455078125,-0.5051870346069336,-0.11365342140197754,-0.01546497642993927
1776193354328255000,7.9002548828125,-0.1604623794555664,0.032217979431152344,0.016528435051441193
1776193354344277500,7.916277587890625,-0.02101421356201172,-0.14401376247406006,-0.06622717529535294
1776193354360298800,7.932298828125,0.18044185638427734,-0.24570763111114502,-0.1814204305410385
1776193354376316200,7.948316162109375,0.5529584884643555,-0.19558870792388916,-0.012706317007541656
1776193354392335400,7.96433544921875,0.8064632415771484,-0.05732536315917969,-0.13087458908557892
1776193354408355000,7.98035498046875,0.6981649398803711,0.04770481586456299,-0.23110446333885193
1776193354424375600,7.99637548828125,0.3682365417480469,-0.03383028507232666,-0.322711706161499
1776193354440398000,8.012398193359376,-0.13252925872802734,0.07658886909484863,-0.22820234298706055
1776193354456424000,8.028423828125,-0.4662208557128906,0.12825846672058105,-0.12585729360580444
1776193354472452400,8.044452392578124,-0.5308837890625,0.10382890701293945,-0.07673382759094238
1776193354488476400,8.060476318359376,-0.8792181015014648,0.12578606605529785,-0.04462176561355591
1776193354504503600,8.076503662109374,-0.9495038986206055,0.0883411169052124,0.17387905716896057
1776193354520529700,8.09252978515625,0.06310844421386719,-0.07062172889709473,0.2002699375152588
1776193354536547300,8.10854736328125,0.46661853790283203,0.007412075996398926,-0.015706181526184082
1776193354552561400,8.1245615234375,0.1465167999267578,0.0358273983001709,0.0016208291053771973
1776193354568579600,8.14057958984375,-0.35736846923828125,0.02996206283569336,0.07110971212387085
1776193354584597200,8.15659716796875,-0.2823152542114258,-0.08616793155670166,-0.14457359910011292
1776193354600622300,8.172622314453125,0.17930030822753906,-0.019095540046691895,-0.45939749479293823
1776193354616646100,8.188646240234375,0.20029735565185547,0.09713435173034668,-0.26792311668395996
1776193354632670700,8.204670654296875,-0.1530628204345703,0.10565316677093506,0.0813053697347641
1776193354648698000,8.220697998046875,-0.2859983444213867,0.1154177188873291,-0.13489176332950592
1776193354664723000,8.236722900390625,-0.3132610321044922,-0.06565773487091064,-0.4906999170780182
1776193354680743700,8.25274365234375,-0.19837474822998047,-0.2718472480773926,-0.43587684631347656
1776193354696765700,8.268765625,0.596461296081543,-0.1890091896057129,-0.03438735008239746
1776193354712790800,8.284790771484374,0.8553676605224609,-0.07650554180145264,0.07028084993362427
1776193354728818700,8.300818603515625,0.20121288299560547,-0.08111560344696045,-0.04598037898540497
1776193354744842500,8.316842529296874,-0.22295379638671875,0.006036281585693359,-0.19175991415977478
1776193354760866000,8.332865966796875,-0.21666622161865234,0.030480146408081055,-0.2673165500164032
1776193354776894000,8.34889404296875,0.1376056671142578,0.011842131614685059,-0.3539324402809143
1776193354792924000,8.364923828125,0.2342987060546875,0.005884647369384766,-0.2604125738143921
1776193354808952000,8.3809521484375,0.00016021728515625,0.02410709857940674,-0.010350238531827927
1776193354824973600,8.3969736328125,-0.16831588745117188,0.021919846534729004,0.1909080147743225
1776193354840994300,8.412994384765625,-0.22242450714111328,0.004305839538574219,0.1699237823486328
1776193354857012000,8.429011962890625,-0.10015010833740234,0.05393660068511963,0.016207970678806305
1776193354873034800,8.44503466796875,-0.1264486312866211,0.035042524337768555,-0.11361828446388245
1776193354889063200,8.461063232421875,-0.19587135314941406,0.12172019481658936,-0.06386224925518036
1776193354905086200,8.477086181640624,-0.1659107208251953,-0.028978705406188965,0.06928617507219315
1776193354921112800,8.49311279296875,0.0324249267578125,-0.021617531776428223,-0.05268389359116554
1776193354937140200,8.50914013671875,0.15130329132080078,0.06292760372161865,-0.09406575560569763
1776193354953168400,8.52516845703125,0.12475395202636719,0.057795166969299316,0.04758687689900398
1776193354969191400,8.54119140625,0.05134773254394531,0.06086909770965576,0.08832108974456787
1776193354985218000,8.557218017578125,-0.13146591186523438,0.05477571487426758,0.10761431604623795
1776193355001240300,8.573240234375,-0.3073263168334961,0.06937217712402344,0.0865543782711029
1776193355017261800,8.58926171875,-0.31427574157714844,0.06158649921417236,0.027404673397541046
1776193355033275600,8.605275634765626,-0.08757400512695312,0.01838862895965576,0.10770862549543381
1776193355049291800,8.621291748046875,-0.023286819458007812,0.011008858680725098,0.11714427173137665
1776193355065312300,8.637312255859374,-0.1209249496459961,0.07015013694763184,0.029277227818965912
1776193355081337600,8.653337646484376,-0.16562938690185547,0.03647661209106445,0.005814202129840851
1776193355097358300,8.6693583984375,-0.04099559783935547,0.05202031135559082,0.06170596927404404
1776193355113379600,8.685379638671876,-0.0533905029296875,0.0497746467590332,0.04222168028354645
1776193355129398800,8.701398681640624,0.06761360168457031,0.006358623504638672,-0.07135026156902313
1776193355145417200,8.717417236328124,0.1624431610107422,-0.006787419319152832,-0.08436846733093262
1776193355161437400,8.7334375,0.1361255645751953,0.01983201503753662,-0.10350072383880615
1776193355177458200,8.749458251953126,0.012610435485839844,0.05480527877807617,-0.059557244181632996
1776193355193482500,8.765482421875,-0.20165443420410156,0.004510045051574707,-0.015523940324783325
1776193355209503200,8.781503173828124,-0.37365245819091797,-0.0026167631149291992,-0.07022508978843689
1776193355225525500,8.797525390625,-0.39377689361572266,0.05554556846618652,-0.015326365828514099
1776193355241548500,8.813548583984375,-0.26870059967041016,0.03944277763366699,0.031195975840091705
1776193355257570000,8.829570068359375,-0.18199634552001953,0.021019458770751953,-0.03237646818161011
1776193355273587500,8.84558740234375,-0.15964794158935547,-0.05922245979309082,-0.0368918851017952
1776193355289605600,8.861605712890626,-0.19217395782470703,-0.0015981197357177734,-0.10627879947423935
1776193355305622000,8.8776220703125,-0.11254692077636719,0.019980549812316895,-0.15720215439796448
1776193355321644000,8.89364404296875,0.09392642974853516,-0.02302408218383789,-0.11334597319364548
1776193355337662700,8.909662841796875,0.2607536315917969,-0.04816317558288574,-0.006838101893663406
1776193355353680600,8.9256806640625,0.13683509826660156,-0.04007399082183838,0.059549517929553986
1776193355369706200,8.941706298828125,-0.1136322021484375,-0.011959314346313477,0.05187613144516945
1776193355385726200,8.957726318359375,-0.23848438262939453,0.0047266483306884766,-0.01231379434466362
1776193355401742300,8.973742431640625,-0.12349414825439453,-0.01957988739013672,-0.06884674727916718
1776193355417760800,8.9897607421875,0.17726421356201172,-0.04031944274902344,0.00048164650797843933
1776193355433786400,9.005786376953125,0.28022289276123047,-0.037787437438964844,0.06078058108687401
1776193355449801500,9.021801513671875,0.02123546600341797,0.06788218021392822,-0.02869502827525139
1776193355465825000,9.037824951171874,-0.2102336883544922,0.12624716758728027,-0.07414363324642181
1776193355481848000,9.05384814453125,-0.34824275970458984,0.03198385238647461,-0.09551146626472473
1776193355497867800,9.06986767578125,-0.37656688690185547,-0.0007442235946655273,-0.24503187835216522
1776193355513886000,9.085885986328124,-0.47775840759277344,0.13771486282348633,-0.23368768393993378
1776193355529902300,9.10190234375,-0.335968017578125,-0.04958391189575195,-0.06918254494667053
1776193355545922000,9.117922119140625,-0.0030126571655273438,-0.1017458438873291,0.09441626071929932
1776193355561936400,9.133936279296876,0.12984275817871094,-0.09625041484832764,0.10225608944892883
1776193355577951500,9.149951416015625,0.10347938537597656,-0.07102358341217041,0.05290567874908447
1776193355593970400,9.165970458984376,0.032347679138183594,-0.11442232131958008,0.027821719646453857
1776193355609986600,9.181986572265625,0.008946418762207031,-0.09268128871917725,-0.07090440392494202
1776193355626007600,9.198007568359374,0.07148456573486328,-0.04733443260192871,-0.11310818791389465
1776193355642023000,9.21402294921875,0.098175048828125,-0.03780519962310791,-0.06814947724342346
1776193355658043400,9.23004345703125,0.017563819885253906,-0.0013180971145629883,0.012137115001678467
1776193355674061600,9.2460615234375,-0.14411449432373047,0.03307604789733887,0.01660364866256714
1776193355690080800,9.262080810546875,0.18494892120361328,0.0059854984283447266,0.2663843035697937
1776193355706111200,9.278111328125,0.30377769470214844,-0.06570279598236084,0.31005656719207764
1776193355722136000,9.294135986328126,0.08365154266357422,-0.10219883918762207,0.0994977355003357
1776193355738159000,9.3101591796875,-0.234710693359375,-0.08568775653839111,-0.061844468116760254
1776193355754179600,9.3261796875,-0.2071847915649414,0.021970510482788086,0.040448129177093506
1776193355770204400,9.342204345703125,-0.08797073364257812,0.0189439058303833,0.10418647527694702
1776193355786230300,9.358230224609375,0.04197120666503906,0.03556251525878906,0.015962839126586914
1776193355802251300,9.374251220703124,0.06940364837646484,0.014569282531738281,-0.009489834308624268
1776193355818274800,9.39027490234375,0.011602401733398438,-0.04420042037963867,0.004561305046081543
1776193355834296300,9.40629638671875,0.05266571044921875,-0.01706695556640625,0.022523343563079834
1776193355850315500,9.4223154296875,0.1301107406616211,-0.05681931972503662,0.06562310457229614
1776193355866335200,9.438335205078126,0.1047210693359375,-0.06572377681732178,0.047561585903167725
1776193355882355200,9.454355224609374,0.10538101196289062,-0.03316354751586914,0.08580350875854492
1776193355898375700,9.470375732421875,0.048323631286621094,-0.020743131637573242,0.10458099842071533
1776193355914396000,9.48639599609375,-0.09989261627197266,0.02699267864227295,0.042503297328948975
1776193355930413800,9.502413818359376,-0.18355941772460938,-0.012060999870300293,-0.01897740364074707
1776193355946429400,9.518429443359375,0.039397239685058594,0.0390009880065918,0.04467308521270752
1776193355962447000,9.534447021484375,0.04510688781738281,0.050467610359191895,0.1313045620918274
1776193355978464300,9.55046435546875,-0.06598472595214844,0.045945048332214355,0.10857051610946655
1776193355994483200,9.566483154296876,-0.09574317932128906,-0.007670998573303223,0.0202367901802063
1776193356010494500,9.582494384765624,-0.027811050415039062,-0.03790783882141113,0.031120240688323975
1776193356026505500,9.59850537109375,0.044432640075683594,-0.03462660312652588,0.045859694480895996
1776193356042514000,9.614513916015625,0.15242767333984375,-0.03839683532714844,0.12679994106292725
1776193356058524700,9.630524658203125,0.1623992919921875,-0.04268968105316162,0.13164561986923218
1776193356074541000,9.646541015625,0.05049610137939453,-0.025844335556030273,0.07122015953063965
1776193356090556000,9.662555908203124,-0.03782367706298828,-0.01990342140197754,-0.003876328468322754
1776193356106573300,9.6785732421875,-0.07880878448486328,-0.03924441337585449,-0.00900876522064209
1776193356122587100,9.694587158203126,-0.11780261993408203,-0.05649280548095703,0.0012655258178710938
1776193356138603000,9.71060302734375,-0.1898336410522461,-0.002851128578186035,0.005662441253662109
1776193356154623500,9.72662353515625,-0.2300128936767578,-0.020799636840820312,0.07907330989837646
1776193356170640600,9.742640625,-0.17441177368164062,-0.0908282995223999,0.1770433783531189
1776193356186658000,9.758657958984376,-0.009565353393554688,-0.10639894008636475,0.10577529668807983
1776193356202674000,9.774673828125,0.06827259063720703,-0.09838485717773438,-0.036728501319885254
1776193356218686200,9.790686279296875,0.10997581481933594,-0.1217660903930664,-0.0352931022644043
1776193356234705200,9.806705078125,0.09656810760498047,-0.11480259895324707,0.008462786674499512
1776193356250718700,9.82271875,0.10482978820800781,-0.03445553779602051,0.09850001335144043
1776193356266730000,9.83872998046875,-0.04467487335205078,-0.00004363059997558594,0.1834607720375061
1776193356282736600,9.854736572265624,-0.31180858612060547,0.04992473125457764,0.06722807884216309
1776193356298748400,9.87074853515625,-0.4144630432128906,0.15992403030395508,-0.08191883563995361
1776193356314763300,9.88676318359375,-0.18683242797851562,0.19074010848999023,-0.12892800569534302
1776193356330781700,9.90278173828125,0.08969593048095703,0.20689809322357178,-0.13990747928619385
1776193356346801200,9.91880126953125,0.3290596008300781,0.1719071865081787,-0.11869001388549805
1776193356362817800,9.93481787109375,0.39671897888183594,0.13211560249328613,-0.01161658763885498
1776193356378839800,9.95083984375,0.41118621826171875,0.14792323112487793,0.007130146026611328
1776193356394853000,9.96685302734375,0.2023305892944336,0.20351040363311768,-0.037748098373413086
1776193356410867700,9.98286767578125,-0.028975486755371094,0.2640082836151123,-0.030040204524993896
1776193356426883300,9.99888330078125,-0.12443256378173828,0.2782522439956665,-0.11593592166900635
1776193356442901500,10.014901611328124,-0.03638172149658203,0.3156569004058838,-0.19785672426223755
1776193356458917400,10.03091748046875,0.13461017608642578,0.3172093629837036,-0.2634679079055786
1776193356474934000,10.04693408203125,0.2690591812133789,0.2498769760131836,-0.3356165885925293
1776193356490948000,10.062947998046875,0.2023935317993164,0.19727158546447754,-0.33617058396339417
1776193356506964500,10.078964599609375,0.07154464721679688,0.24148023128509521,-0.2560542821884155
1776193356522981400,10.0949814453125,-0.02065753936767578,0.26806724071502686,-0.2582983374595642
1776193356539000300,10.111000244140625,0.03584861755371094,0.18086230754852295,-0.14908495545387268
1776193356555025700,10.127025634765625,0.013525009155273438,0.04937911033630371,0.0006976723670959473
1776193356571036000,10.143035888671875,-0.1618032455444336,0.04163563251495361,0.14962852001190186
1776193356587047400,10.15904736328125,-0.42559051513671875,0.06378698348999023,0.094728022813797
1776193356603063600,10.1750634765625,-0.5151357650756836,0.014823436737060547,0.0827840268611908
1776193356619086300,10.19108642578125,-0.5258588790893555,-0.03743302822113037,0.15661117434501648
1776193356635112200,10.2071123046875,-0.4694242477416992,0.03512120246887207,0.32277655601501465
1776193356651127000,10.223126953125,-0.3146200180053711,-0.0030728578567504883,0.3665429353713989
1776193356667146500,10.239146484375,-0.39417076110839844,-0.14531588554382324,0.01991046965122223
1776193356683167500,10.25516748046875,-0.7152652740478516,-0.17193138599395752,-0.2082119882106781
1776193356699192300,10.2711923828125,-0.8920917510986328,-0.11774587631225586,-0.12277442216873169
1776193356715216000,10.2872158203125,-1.0079002380371094,-0.12792158126831055,0.0180133655667305
1776193356731234600,10.303234619140625,-1.2708196640014648,-0.10164928436279297,0.10826952755451202
1776193356747254800,10.3192548828125,-1.4646711349487305,-0.08337259292602539,0.32500311732292175
1776193356763267600,10.335267578125,-1.1630926132202148,-0.1011512279510498,0.4171101152896881
1776193356779283000,10.351282958984376,-0.48870849609375,-0.16631340980529785,0.5352102518081665
1776193356795308500,10.36730859375,0.1378631591796875,-0.3656230568885803,0.44599151611328125
1776193356811326700,10.38332666015625,0.6022024154663086,-0.5913638472557068,0.01868411898612976
1776193356827351800,10.399351806640626,0.7356481552124023,-0.5654598474502563,-0.2892165780067444
1776193356843366100,10.4153662109375,0.5452365875244141,-0.28232845664024353,-0.3395857810974121
1776193356859379500,10.43137939453125,0.07765483856201172,0.20645499229431152,-0.260258287191391
1776193356875402500,10.447402587890625,-0.1457071304321289,0.2938939332962036,-0.2396651804447174
1776193356891410400,10.463410400390625,-0.12923908233642578,0.024257242679595947,-0.3863847553730011
1776193356907421400,10.47942138671875,0.229339599609375,-0.0445060133934021,-0.9554519653320312
1776193356923437600,10.4954375,1.0573816299438477,-0.051512062549591064,-1.2463195323944092
1776193356939461000,10.511461181640625,1.3738737106323242,-0.30356040596961975,-0.7776504158973694
1776193356955480000,10.52747998046875,0.5607519149780273,0.03730061650276184,0.031099021434783936
1776193356971498800,10.543498779296876,-1.1968488693237305,0.3287680149078369,0.8926267623901367
1776193356987520000,10.55952001953125,-2.529451370239258,0.5168626308441162,1.3148261308670044
1776193357003537700,10.57553759765625,-1.9548912048339844,0.3912739157676697,1.174255609512329
1776193357019554000,10.591553955078124,-0.6713800430297852,0.049468159675598145,0.6476267576217651
1776193357035571500,10.607571533203124,0.7288017272949219,-0.24021869897842407,-0.3327644169330597
1776193357051592000,10.623592041015625,1.2405614852905273,-0.8401091694831848,-0.7841178178787231
1776193357067609000,10.639609130859375,1.0786876678466797,-1.453571081161499,-0.8215664625167847
1776193357083621400,10.655621337890626,0.4083423614501953,-1.329158067703247,-0.8509040474891663
1776193357099638300,10.67163818359375,-0.033835411071777344,-1.1592565774917603,-1.036840796470642
1776193357115652400,10.68765234375,0.6234025955200195,-1.1492009162902832,-1.2339352369308472
1776193357131677200,10.70367724609375,1.5928497314453125,-1.1012569665908813,-1.2817155122756958
1776193357147696600,10.719696533203125,2.5916566848754883,-0.4902614951133728,-0.6574015617370605
1776193357163715000,10.735715087890625,3.080327033996582,0.08019959181547165,-0.14064951241016388
1776193357179729700,10.751729736328125,3.170954704284668,0.2789311110973358,0.18123392760753632
1776193357195744800,10.767744873046874,3.4217634201049805,0.1023726537823677,0.5931098461151123
1776193357219765200,10.79176513671875,3.859513282775879,-0.6394772529602051,0.9856610298156738
1776193357235779600,10.807779541015625,3.6992578506469727,-1.1248877048492432,0.368986576795578
1776193357251791400,10.823791259765626,2.9861555099487305,-1.0990917682647705,-0.10828033834695816
1776193357267807700,10.839807861328126,2.0249404907226562,-0.8015924096107483,0.354690819978714
1776193357283825200,10.8558251953125,1.3401355743408203,-0.7071298956871033,1.1544290781021118
1776193357299842600,10.871842529296876,0.8521709442138672,-0.6055853366851807,1.3078150749206543
1776193357315854000,10.88785400390625,0.7654495239257812,-0.7094460725784302,1.0688918828964233
1776193357331869000,10.903868896484376,0.4402179718017578,-0.7265976667404175,0.8575925827026367
1776193357347883000,10.919883056640625,-0.2637310028076172,-0.16690175235271454,0.7360631227493286
1776193357363898400,10.9358984375,-0.42708873748779297,0.3424208164215088,0.6555576920509338
1776193357379919000,10.951919189453125,0.3741950988769531,0.3352815806865692,0.3591806888580322
1776193357395945200,10.9679453125,0.9200553894042969,0.1586086004972458,-0.5004414319992065
1776193357411964000,10.9839638671875,1.014627456665039,-0.02458842843770981,-1.0503954887390137
1776193357427986400,10.999986328125,1.3907451629638672,0.0037619173526763916,-1.1489379405975342
1776193357444010500,11.016010498046874,2.471284866333008,0.27373307943344116,-1.1436316967010498
1776193357460028400,11.0320283203125,3.0618696212768555,0.33046895265579224,-0.8613609075546265
1776193357476046800,11.048046875,2.5931615829467773,0.46079176664352417,-0.37672972679138184
1776193357492065300,11.064065185546875,1.356149673461914,0.8168948888778687,0.010678812861442566
1776193357508081400,11.080081298828125,0.6942844390869141,1.0581961870193481,0.0850440114736557
1776193357524099600,11.096099609375,1.095820426940918,0.9349734783172607,-0.018540050834417343
1776193357540120800,11.112120849609376,2.0388002395629883,0.4837418496608734,-0.316703736782074
1776193357556141000,11.12814111328125,2.4753217697143555,0.1310480535030365,-0.5203909873962402
1776193357572155100,11.144155029296876,2.1737194061279297,0.21702392399311066,-0.5061220526695251
1776193357588174600,11.160174560546874,1.5744895935058594,0.5039631128311157,-0.4370918273925781
1776193357604192800,11.17619287109375,1.1358699798583984,0.6092836856842041,-0.5252721309661865
1776193357620208000,11.1922080078125,0.6645183563232422,0.5331234335899353,-0.5989457964897156
1776193357636221400,11.208221435546875,0.31137847900390625,0.4488111436367035,-0.6136153340339661
1776193357652233000,11.22423291015625,0.4042024612426758,0.31361517310142517,-0.918106198310852
1776193357668250000,11.24025,0.761754035949707,0.09217788279056549,-1.1219669580459595
1776193357684266200,11.256266357421875,0.9508447647094727,0.09545983374118805,-1.0005581378936768
1776193357700282000,11.2722822265625,0.7746477127075195,0.2918485999107361,-0.7108467817306519
1776193357716300800,11.28830078125,0.4765768051147461,0.41955649852752686,-0.4400985836982727
1776193357732326400,11.304326416015625,0.14808273315429688,0.45177340507507324,-0.39092397689819336
1776193357748348700,11.3203486328125,0.04942607879638672,0.26193949580192566,-0.5575054883956909
1776193357764364000,11.336364013671876,0.09152984619140625,-0.12232931703329086,-0.5207022428512573
1776193357780378000,11.352378173828125,-0.02199268341064453,-0.3531758487224579,-0.507603645324707
1776193357796384800,11.368384765625,-0.36734676361083984,-0.22640100121498108,-0.38714325428009033
1776193357812395800,11.384395751953125,-1.0205183029174805,0.039475977420806885,-0.18501555919647217
1776193357828414500,11.40041455078125,-1.8680229187011719,0.15438854694366455,0.07160508632659912
1776193357844438300,11.416438232421875,-2.407318592071533,-0.014147818088531494,0.13288819789886475
1776193357860458200,11.432458251953125,-2.3627333641052246,-0.2526930272579193,-0.15617752075195312
1776193357876476700,11.4484765625,-1.9921293258666992,-0.29333293437957764,-0.27331310510635376
1776193357892503600,11.464503662109376,-1.704209327697754,-0.24320539832115173,-0.0982590913772583
1776193357908525000,11.480525146484375,-1.5007219314575195,-0.12324419617652893,0.2590212821960449
1776193357924549600,11.496549560546875,-1.7928194999694824,-0.22277092933654785,0.6989921927452087
1776193357940575700,11.51257568359375,-2.1999597549438477,-0.40348678827285767,0.979497492313385
1776193357956598000,11.528597900390626,-2.3705739974975586,-0.4068392813205719,1.0401973724365234
1776193357972622800,11.544622802734375,-2.4291915893554688,-0.3498684763908386,0.9803793430328369
1776193357988645600,11.560645751953125,-2.476962089538574,-0.29020774364471436,0.9606874585151672
1776193358004670500,11.57667041015625,-2.5055160522460938,-0.2946239709854126,0.8980823159217834
1776193358020694800,11.59269482421875,-2.4439477920532227,-0.22290682792663574,0.9441320300102234
1776193358036719000,11.608718994140625,-2.3117876052856445,-0.23337364196777344,0.7296372652053833
1776193358052744700,11.62474462890625,-2.1156773567199707,-0.27968859672546387,0.392215371131897
1776193358068771300,11.640771240234375,-2.0465946197509766,-0.3333247900009155,0.2687626779079437
1776193358084797000,11.656796875,-1.8059139251708984,-0.4190690517425537,0.35331594944000244
1776193358100828700,11.67282861328125,-1.3359136581420898,-0.44206011295318604,0.43361517786979675
1776193358116861000,11.68886083984375,-1.1906061172485352,-0.45992517471313477,0.4368760883808136
1776193358132886500,11.704886474609374,-1.2873716354370117,-0.3591412305831909,0.4568901062011719
1776193358148908000,11.720907958984375,-1.5438432693481445,-0.30085182189941406,0.5379816889762878
1776193358164929500,11.736929443359376,-1.8692846298217773,-0.09951019287109375,0.640448808670044
1776193358180950300,11.7529501953125,-1.989513874053955,0.18152999877929688,0.7725359201431274
1776193358196967000,11.768966796875,-1.9898481369018555,0.27841639518737793,0.9632432460784912
1776193358212990200,11.784990234375,-2.0717082023620605,0.2931917905807495,0.9557802081108093
1776193358229008600,11.801008544921874,-2.210958957672119,0.394697904586792,0.661785364151001
1776193358245027000,11.817027099609374,-2.3402323722839355,0.443206787109375,0.24326854944229126
1776193358261050400,11.83305029296875,-2.1742849349975586,0.41547107696533203,0.05323776602745056
1776193358277067300,11.8490673828125,-1.8113951683044434,0.3646249771118164,0.05017423629760742
1776193358293089800,11.86508984375,-1.6303315162658691,0.4581730365753174,0.10697031021118164
1776193358309109000,11.88110888671875,-1.4412593841552734,0.6807212829589844,0.07938659191131592
1776193358325131000,11.897131103515624,-1.404510498046875,0.8181538581848145,0.14949959516525269
1776193358341154300,11.913154296875,-1.3580408096313477,0.9113833904266357,0.40978214144706726
1776193358357176800,11.9291767578125,-1.324666976928711,1.0631992816925049,0.4534239172935486
1776193358373197300,11.945197265625,-1.3028125762939453,1.209679365158081,0.44525963068008423
1776193358389220000,11.96122021484375,-1.247115135192871,1.2400648593902588,0.4015826880931854
1776193358405238000,11.977238037109375,-1.0538396835327148,1.259549856185913,0.2983303368091583
1776193358421257700,11.9932578125,-0.8490724563598633,1.3190655708312988,0.253724068403244
1776193358437276400,12.0092763671875,-0.8284616470336914,1.2362961769104004,0.30200132727622986
1776193358453301200,12.02530126953125,-0.898529052734375,1.2202377319335938,0.29368144273757935
1776193358469315800,12.04131591796875,-0.7370920181274414,1.187535285949707,0.4892377257347107
1776193358485332700,12.057332763671875,-0.6581354141235352,1.0818591117858887,0.4526158571243286
1776193358501352000,12.07335205078125,-0.4758567810058594,1.1202366352081299,0.2645379602909088
1776193358517369300,12.089369384765625,-0.2334308624267578,1.0280485153198242,0.18541163206100464
1776193358533388500,12.105388427734376,0.08160114288330078,0.9237065315246582,-0.1056155115365982
1776193358549409000,12.121408935546874,0.4639596939086914,0.711475133895874,-0.4672091603279114
1776193358565425700,12.13742578125,1.090601921081543,0.3697526454925537,-0.7133669853210449
1776193358581445400,12.1534453125,1.6394309997558594,0.09815812110900879,-0.5779593586921692
1776193358597464800,12.16946484375,1.9233875274658203,0.15886831283569336,-0.03070172667503357
1776193358613483800,12.18548388671875,2.25469970703125,0.2545337677001953,0.39304715394973755
1776193358629505800,12.201505859375,2.449075698852539,0.04215288162231445,0.5386028289794922
1776193358645528600,12.217528564453126,2.610201835632324,-0.3652418851852417,0.3181251287460327
1776193358661557000,12.233556884765624,2.5512466430664062,-0.7832580804824829,-0.12341031432151794
1776193358677584600,12.249584716796875,2.0710744857788086,-0.8195288181304932,-0.7333471775054932
1776193358693613800,12.26561376953125,1.5537080764770508,-0.587028980255127,-1.1053292751312256
1776193358709639700,12.2816396484375,0.9884767532348633,-0.46112561225891113,-1.3585597276687622
1776193358725666000,12.297666015625,0.36283302307128906,-0.5814217329025269,-1.6088355779647827
1776193358741692200,12.313692138671875,-0.2102813720703125,-0.7044914960861206,-1.7011761665344238
1776193358757715200,12.329715087890625,-0.7818765640258789,-0.6795649528503418,-1.6461811065673828
1776193358773735200,12.345735107421875,-1.1581354141235352,-0.6028920412063599,-1.6833668947219849
1776193358789753600,12.361753662109376,-1.2672910690307617,-0.5175313949584961,-1.7788790464401245
1776193358805774300,12.3777744140625,-1.1815929412841797,-0.5074424743652344,-1.7980748414993286
1776193358821791200,12.393791259765624,-0.9526262283325195,-0.5079371929168701,-1.8398748636245728
1776193358837813500,12.4098134765625,-0.8300685882568359,-0.6215262413024902,-1.8489394187927246
1776193358853834500,12.42583447265625,-0.8624258041381836,-0.8394315242767334,-1.7705086469650269
1776193358869855700,12.441855712890625,-1.1720504760742188,-0.9276652336120605,-1.8649959564208984
1776193358885873000,12.457872802734375,-1.4528770446777344,-0.7569746971130371,-1.9914991855621338
1776193358901894700,12.473894775390624,-1.4849729537963867,-0.6854467391967773,-2.0755209922790527
1776193358917916000,12.489916015625,-0.9191827774047852,-0.745826005935669,-2.1622111797332764
1776193358933934800,12.505934814453125,-0.12379741668701172,-0.9307048320770264,-2.543363094329834
1776193358949955600,12.52195556640625,0.5571784973144531,-1.0895781517028809,-2.7983787059783936
1776193358965978000,12.53797802734375,0.7591104507446289,-1.1283457279205322,-2.699047088623047
1776193358981998600,12.55399853515625,0.7448530197143555,-1.0494680404663086,-2.3844118118286133
1776193358998017500,12.570017578125,0.6127004623413086,-0.8270895481109619,-2.010284423828125
1776193359014037200,12.586037353515625,0.5339956283569336,-0.670604944229126,-1.814668893814087
1776193359030056700,12.602056640625,0.3000516891479492,-0.534176230430603,-1.6934027671813965
1776193359046069800,12.61806982421875,0.07651996612548828,-0.3938804864883423,-1.5241179466247559
1776193359062083800,12.634083740234376,-0.04739665985107422,-0.283674955368042,-1.237308382987976
1776193359078099200,12.65009912109375,0.21982097625732422,-0.25413525104522705,-1.078810453414917
1776193359094111700,12.66611181640625,0.5321426391601562,-0.43432366847991943,-1.0910351276397705
1776193359110124300,12.682124267578125,0.563899040222168,-0.6210949420928955,-1.1421899795532227
1776193359126144500,12.69814453125,0.30001354217529297,-0.6542098522186279,-1.2000439167022705
1776193359142161700,12.71416162109375,-0.008559226989746094,-0.618449330329895,-1.1745368242263794
1776193359158179000,12.730178955078125,-0.04067039489746094,-0.5036803483963013,-1.0494965314865112
1776193359174196200,12.7461962890625,0.25240135192871094,-0.42029714584350586,-0.7359791398048401
1776193359190211000,12.762211181640625,0.6998071670532227,-0.4323223829269409,-0.4578164219856262
1776193359206236400,12.778236328125,1.1359615325927734,-0.5801815986633301,-0.28365668654441833
1776193359222258700,12.7942587890625,1.3316650390625,-0.7097855806350708,-0.20360857248306274
1776193359238281200,12.81028125,1.202981948852539,-0.8958309888839722,-0.005885167513042688
1776193359254301200,12.82630126953125,0.9805841445922852,-0.9453654289245605,0.3247775733470917
1776193359278333700,12.850333740234374,0.9976520538330078,-0.8262011408805847,0.6373645067214966
1776193359294356000,12.86635595703125,1.158665657043457,-0.8542094230651855,0.8458201885223389
1776193359310376200,12.882376220703126,1.2892122268676758,-0.8863580226898193,1.0593007802963257
1776193359326394400,12.898394287109374,1.3028936386108398,-0.7535587549209595,1.2407363653182983
1776193359350424000,12.922424072265626,1.2513504028320312,-0.44690704345703125,1.2942148447036743
1776193359366444500,12.938444580078125,1.3288755416870117,-0.06604814529418945,1.383156180381775
1776193359382465800,12.9544658203125,1.4194145202636719,0.06982612609863281,1.655569076538086
1776193359398490600,12.97049072265625,1.1532983779907227,-0.3220641613006592,1.6464823484420776
1776193359414515700,12.986515625,1.002161979675293,-0.7904964685440063,0.9840812087059021
1776193359430541000,13.002541015625,1.397038459777832,-1.20186448097229,0.35257089138031006
1776193359446570000,13.018570068359375,1.5343084335327148,-1.6192593574523926,0.15838703513145447
1776193359462593000,13.034593017578125,0.8123340606689453,-1.654157280921936,0.2958291172981262
1776193359478615800,13.05061572265625,-0.3467273712158203,-1.444123387336731,0.501345157623291
1776193359494637600,13.066637451171875,-1.4521350860595703,-1.1712726354599,0.8142528533935547
1776193359510662100,13.082662109375,-1.9322099685668945,-0.9992755651473999,1.2351404428482056
1776193359526686700,13.098686767578124,-1.9084715843200684,-1.0649700164794922,1.8688493967056274
1776193359542710300,13.114710205078126,-1.8666996955871582,-1.1523572206497192,2.46563458442688
1776193359558729000,13.13072900390625,-1.929398536682129,-1.0469294786453247,2.7434799671173096
1776193359574750200,13.146750244140625,-1.7955269813537598,-1.060254693031311,2.8590550422668457
1776193359590769200,13.16276904296875,-1.5308914184570312,-1.145276427268982,2.743398427963257
1776193359606791700,13.178791748046875,-1.0539350509643555,-1.0684949159622192,2.4242331981658936
1776193359622818300,13.194818359375,-0.5128574371337891,-1.0398257970809937,2.1502530574798584
1776193359638847000,13.210846923828125,-0.14477825164794922,-1.084299087524414,1.8014310598373413
1776193359654870300,13.226870361328125,-0.11397266387939453,-0.9217454195022583,1.5490937232971191
1776193359670894300,13.242894287109374,-0.6031322479248047,-0.7651987075805664,1.4359325170516968
1776193359686918100,13.258918212890626,-1.0349292755126953,-0.591008186340332,1.5444457530975342
1776193359702942000,13.27494189453125,-1.1533136367797852,-0.30359458923339844,1.7476555109024048
1776193359718966800,13.290966796875,-1.0713977813720703,-0.13747131824493408,1.917248249053955
1776193359734995200,13.3069951171875,-1.0189800262451172,-0.06675326824188232,2.0374507904052734
1776193359751018800,13.323018798828125,-1.0062675476074219,0.02057468891143799,2.0483615398406982
1776193359767042000,13.3390419921875,-1.0451374053955078,0.05242586135864258,1.987311601638794
1776193359783071200,13.3550712890625,-1.0550537109375,0.028075575828552246,1.8531458377838135
1776193359799096000,13.371095947265625,-0.9227514266967773,0.046663522720336914,1.6389055252075195
1776193359815124000,13.3871240234375,-0.6864652633666992,0.03301084041595459,1.3880224227905273
1776193359831156200,13.40315625,-0.41658973693847656,0.019426584243774414,1.2995179891586304
1776193359847186200,13.419186279296875,-0.3867454528808594,0.07700586318969727,1.1357266902923584
1776193359863213800,13.4352138671875,-0.3155088424682617,0.15708303451538086,0.838378369808197
1776193359879242500,13.451242431640624,-0.19255828857421875,0.25056278705596924,0.5746596455574036
1776193359895266000,13.46726611328125,0.17475509643554688,0.3137497901916504,0.5241727232933044
1776193359911292200,13.483292236328126,0.5137996673583984,0.26706624031066895,0.5955901741981506
1776193359927317500,13.4993173828125,0.543828010559082,0.19737577438354492,0.8584191799163818
1776193359943345400,13.515345458984376,0.4791069030761719,0.25102996826171875,1.1243064403533936
1776193359959375400,13.531375244140625,0.7508783340454102,0.26473021507263184,1.1845366954803467
1776193359983422200,13.555422119140625,1.1113100051879883,0.044234514236450195,1.008083462715149
1776193359999446300,13.5714462890625,1.0986223220825195,-0.10404515266418457,0.8297032117843628
1776193360015475500,13.587475341796875,0.9994840621948242,-0.20478391647338867,0.6405880451202393
1776193360031509000,13.603509033203125,0.9991178512573242,-0.1358170509338379,0.4100959897041321
1776193360047540200,13.619540283203126,1.0849924087524414,0.044945716857910156,0.1543571650981903
1776193360063574000,13.635573974609375,1.041304588317871,0.15850400924682617,0.0332733690738678
1776193360079610400,13.6516103515625,0.916560173034668,0.2289576530456543,-0.04785230755805969
1776193360095644400,13.66764453125,1.0234699249267578,0.1451253890991211,-0.03825518488883972
1776193360111680000,13.683679931640626,1.6453990936279297,-0.10373783111572266,0.1619175374507904
1776193360127715600,13.699715576171876,2.2986669540405273,-0.4751555919647217,0.2592253088951111
1776193360143749400,13.715749267578126,2.626676559448242,-0.7202259302139282,0.13891375064849854
1776193360159784000,13.731783935546876,2.271162986755371,-0.9829281568527222,-0.026694677770137787
1776193360175822600,13.747822509765625,1.3889331817626953,-1.1574201583862305,-0.222856342792511
1776193360191859700,13.763859619140625,0.49505043029785156,-1.0494040250778198,-0.4699598550796509
1776193360207897000,13.77989697265625,-0.2989025115966797,-0.9099135398864746,-0.6305908560752869
1776193360223931600,13.795931640625,-0.9887561798095703,-0.7997058629989624,-0.7531577348709106
1776193360239965000,13.81196484375,-1.275080680847168,-0.7393085956573486,-0.7819480895996094
1776193360255996200,13.82799609375,-1.3132648468017578,-0.7100492715835571,-0.778968095779419
1776193360272030500,13.844030517578124,-1.2279386520385742,-0.7364820241928101,-0.8655206561088562
1776193360288062000,13.86006201171875,-0.8313055038452148,-0.7449771165847778,-0.8292061686515808
1776193360304093200,13.87609326171875,-0.47292613983154297,-0.8661677837371826,-0.7076878547668457
1776193360320122600,13.89212255859375,-0.13280582427978516,-0.897363543510437,-0.5865428447723389
1776193360336155100,13.908155029296875,0.15622425079345703,-0.9325772523880005,-0.5134829878807068
1776193360352190200,13.924190185546875,0.3827180862426758,-1.0601871013641357,-0.5320680141448975
1776193360368224300,13.940224365234375,0.5485076904296875,-1.1457242965698242,-0.640235185623169
1776193360384253000,13.9562529296875,0.5356998443603516,-1.2092859745025635,-0.7316747903823853
1776193360400276500,13.9722763671875,0.1651763916015625,-1.221529483795166,-0.6918399333953857
1776193360416308200,13.98830810546875,-0.3668498992919922,-1.1060420274734497,-0.6192430853843689
1776193360432336100,14.004336181640625,-0.9032039642333984,-0.9299778938293457,-0.568841814994812
1776193360448365000,14.020364990234375,-1.1256351470947266,-0.8219541311264038,-0.5547080636024475
1776193360464397600,14.0363974609375,-1.2639894485473633,-0.8046290874481201,-0.5317783355712891
1776193360480423000,14.0524228515625,-1.2877559661865234,-0.7702493667602539,-0.48552143573760986
1776193360496447700,14.06844775390625,-1.097519874572754,-0.7052640914916992,-0.44739794731140137
1776193360512479200,14.084479248046875,-0.8799829483032227,-0.708014726638794,-0.31500864028930664
1776193360528511000,14.100510986328125,-0.6104164123535156,-0.7054800987243652,-0.19792622327804565
1776193360544543200,14.116543212890624,-0.46643733978271484,-0.7306032180786133,-0.12493240833282471
1776193360560578000,14.132578125,-0.35227108001708984,-0.6425923109054565,0.037001997232437134
1776193360576609800,14.14860986328125,-0.2244882583618164,-0.5617791414260864,0.18728387355804443
1776193360592638200,14.16463818359375,-0.17068099975585938,-0.5013935565948486,0.26264652609825134
1776193360608666000,14.180666015625,-0.27632713317871094,-0.3900020122528076,0.30640265345573425
1776193360624687600,14.1966875,-0.3908824920654297,-0.290790319442749,0.2968292236328125
1776193360640710700,14.212710693359375,-0.45528221130371094,-0.2576773166656494,0.2676642835140228
1776193360656729300,14.228729248046875,-0.36995983123779297,-0.21712112426757812,0.3789171576499939
1776193360672746800,14.244746826171875,-0.3552875518798828,-0.052018165588378906,0.5977545976638794
1776193360688767500,14.260767578125,-0.4544668197631836,0.17059898376464844,0.7985343933105469
1776193360704789200,14.276789306640625,-0.47696971893310547,0.34287214279174805,0.7148385047912598
1776193360720815900,14.29281591796875,-0.12378120422363281,0.34713077545166016,0.4463408291339874
1776193360736834300,14.308834228515625,0.5309906005859375,0.16878080368041992,0.2630580961704254
1776193360752854500,14.3248544921875,1.3804960250854492,-0.15158343315124512,0.2728410065174103
1776193360768867300,14.340867431640625,1.855839729309082,-0.4431964159011841,0.4883608818054199
1776193360784881000,14.356880859375,1.6636056900024414,-0.396331787109375,0.5868802070617676
1776193360800895700,14.372895751953125,1.126387596130371,-0.14371132850646973,0.6134548783302307
1776193360816920300,14.38892041015625,0.73052978515625,0.0435791015625,0.5664157271385193
1776193360832943400,14.404943359375,0.7117090225219727,0.12170052528381348,0.5244070887565613
1776193360848970000,14.420969970703124,1.5072965621948242,0.11578261852264404,0.6957780122756958
1776193360864996400,14.436996337890625,2.5615081787109375,-0.07412409782409668,0.8792659044265747
1776193360881024000,14.45302392578125,3.349032402038574,-0.3193950653076172,0.6185286045074463
1776193360897049000,14.469049072265625,3.1138687133789062,-0.6715742349624634,0.518603503704071
1776193360913071900,14.48507177734375,1.8543462753295898,-0.7391478419303894,0.5757437944412231
1776193360929100800,14.501100830078125,0.3071136474609375,-0.5885915756225586,0.6704283952713013
1776193360945127400,14.51712744140625,-0.7399053573608398,-0.549065351486206,0.9552023410797119
1776193360961152800,14.53315283203125,-1.2397079467773438,-0.41858530044555664,1.0975619554519653
1776193360977178600,14.5491787109375,-1.2468938827514648,-0.4835660457611084,1.2479561567306519
1776193360993201700,14.56520166015625,-1.2318410873413086,-0.692779541015625,1.4333069324493408
1776193361009227300,14.581227294921876,-1.3518075942993164,-0.8044912815093994,1.596795678138733
1776193361025255700,14.597255615234374,-1.4802579879760742,-0.7986553907394409,1.6880073547363281
1776193361041281500,14.613281494140624,-1.3781318664550781,-0.8333879709243774,1.63054358959198
1776193361057307600,14.6293076171875,-1.016779899597168,-0.8827806711196899,1.5100648403167725
1776193361073334800,14.645334716796874,-0.5627870559692383,-0.7779891490936279,1.3445380926132202
1776193361089365800,14.66136572265625,-0.2670478820800781,-0.6132880449295044,1.142987608909607
1776193361105394000,14.677393798828126,-0.2922840118408203,-0.4826054573059082,0.9776089191436768
1776193361121423400,14.69342333984375,-0.5016927719116211,-0.3878951072692871,0.8427221179008484
1776193361137447400,14.709447509765624,-0.6846237182617188,-0.24843180179595947,0.41051995754241943
1776193361153471200,14.72547119140625,-0.7921838760375977,-0.05534958839416504,0.1847466379404068
1776193361169498400,14.741498291015626,-0.9928503036499023,0.07599949836730957,0.16120338439941406
1776193361185533400,14.757533447265626,-1.3292627334594727,0.1501624584197998,0.2324247658252716
1776193361201570800,14.77357080078125,-1.7144250869750977,0.34160780906677246,0.25065237283706665
1776193361217610800,14.78961083984375,-1.8849787712097168,0.49869728088378906,0.2767286002635956
1776193361233639700,14.8056396484375,-1.8112435340881348,0.5015561580657959,0.3404204845428467
1776193361249670400,14.82167041015625,-1.699082374572754,0.5330221652984619,0.37929829955101013
1776193361265705700,14.837705810546876,-1.4595365524291992,0.5467703342437744,0.45612648129463196
1776193361281746700,14.85374658203125,-1.0920534133911133,0.5054991245269775,0.3994596600532532
1776193361297782800,14.86978271484375,-0.8223810195922852,0.4495093822479248,0.226628839969635
1776193361313816600,14.885816650390625,-0.7953815460205078,0.5027978420257568,0.05670410394668579
1776193361329855200,14.901855224609376,-0.8510351181030273,0.5659589767456055,-0.08712279796600342
1776193361345896000,14.91789599609375,-0.5322589874267578,0.5686562061309814,-0.3520781397819519
1776193361361928000,14.933927978515625,0.00879669189453125,0.44429945945739746,-0.4726046323776245
1776193361377959000,14.949958984375,0.40272998809814453,0.32004499435424805,-0.5386703610420227
1776193361393993500,14.965993408203126,0.7028903961181641,0.3043525218963623,-0.5127854347229004
1776193361410025500,14.982025390625,1.1397457122802734,0.25376343727111816,-0.333715558052063
1776193361426061600,14.9980615234375,1.530959129333496,0.3199000358581543,-0.23995965719223022
1776193361442094800,15.0140947265625,1.6353435516357422,0.49410176277160645,-0.2344185709953308
1776193361458134000,15.030134033203124,1.5784645080566406,0.6277813911437988,-0.40769660472869873
1776193361474173000,15.0461728515625,1.5089378356933594,0.7749130725860596,-0.7080094218254089
1776193361490204400,15.062204345703124,1.572998046875,0.8060727119445801,-0.8273261785507202
1776193361506238200,15.07823828125,1.7914247512817383,0.5525650978088379,-0.5922541618347168
1776193361522277400,15.09427734375,2.3436155319213867,0.27318358421325684,-0.5335637927055359
1776193361538316000,15.11031591796875,3.0168533325195312,-0.0027545690536499023,-0.6910499334335327
1776193361554351400,15.126351318359376,3.9061975479125977,-0.34747326374053955,-0.7139795422554016
1776193361570389000,15.142388916015625,4.373852729797363,-0.7049704790115356,-0.7154765725135803
1776193361586425900,15.15842578125,3.6729211807250977,-1.1038939952850342,-0.8281358480453491
1776193361602466000,15.174466064453124,2.343503952026367,-1.1949337720870972,-0.9958474636077881
1776193361618499800,15.190499755859374,0.668055534362793,-1.0749728679656982,-1.0967470407485962
1776193361634536700,15.20653662109375,-0.49785900115966797,-0.9089833498001099,-1.074087381362915
1776193361650578400,15.222578369140624,-1.3311262130737305,-0.7364219427108765,-1.223222255706787
1776193361666617600,15.23861767578125,-1.6850228309631348,-0.6509628295898438,-1.3925641775131226
1776193361682657500,15.254657470703124,-1.7134613990783691,-0.7199393510818481,-1.5609114170074463
1776193361698699500,15.270699462890626,-1.588155746459961,-0.8793940544128418,-1.7725791931152344
1776193361714735000,15.286735107421874,-1.400014877319336,-1.0871912240982056,-1.9170466661453247
1776193361730769400,15.302769287109374,-1.0635900497436523,-1.2858848571777344,-1.9591646194458008
1776193361746802700,15.318802734375,-0.8068046569824219,-1.395512580871582,-1.831896185874939
1776193361762835000,15.3348349609375,-0.6168146133422852,-1.3667585849761963,-1.5385383367538452
1776193361778868200,15.3508681640625,-0.5650062561035156,-1.3722354173660278,-1.4226504564285278
1776193361794902300,15.36690234375,-0.6900186538696289,-1.233933448791504,-1.3074778318405151
1776193361810931700,15.382931640625,-0.8742475509643555,-1.063295841217041,-1.2734235525131226
1776193361826959400,15.39895947265625,-0.8159942626953125,-0.9880868196487427,-1.3987982273101807
1776193361842990600,15.414990478515625,-0.6244602203369141,-0.9742821455001831,-1.5121643543243408
1776193361859019500,15.43101953125,-0.5648698806762695,-0.9271780252456665,-1.4456379413604736
1776193361875051000,15.447051025390625,-0.4998035430908203,-0.88959801197052,-1.238417387008667
1776193361891077000,15.4630771484375,-0.2791118621826172,-0.8885055780410767,-1.2148069143295288
1776193361907106800,15.47910693359375,-0.12627506256103516,-0.8905032873153687,-1.2222926616668701
1776193361923141000,15.49514111328125,-0.20398235321044922,-0.8275192975997925,-1.1193945407867432
1776193361939175400,15.511175537109375,-0.4046611785888672,-0.6558893918991089,-1.0404560565948486
1776193361955201500,15.527201416015625,-0.6357574462890625,-0.47298145294189453,-0.9643679857254028
1776193361971223000,15.54322314453125,-0.9398107528686523,-0.41552257537841797,-0.764785647392273
1776193361987244800,15.559244873046875,-0.9932956695556641,-0.327181339263916,-0.6383670568466187
1776193362003272200,15.575272216796876,-0.7662944793701172,-0.3725306987762451,-0.5551435351371765
1776193362019301600,15.591301513671874,-0.37864112854003906,-0.4302363395690918,-0.596028208732605
1776193362035328300,15.607328369140625,-0.026096343994140625,-0.44631147384643555,-0.6489957571029663
1776193362051357400,15.623357421875,-0.0048961639404296875,-0.36260294914245605,-0.4853901267051697
1776193362067385000,15.639385009765626,-0.3333253860473633,-0.165755033493042,-0.23089322447776794
1776193362083408600,15.65540869140625,-0.25188255310058594,0.06988000869750977,0.14607924222946167
1776193362099434500,15.6714345703125,0.2909507751464844,0.15795207023620605,0.31428632140159607
1776193362115462400,15.68746240234375,0.8105316162109375,0.008577346801757812,0.1963905692100525
1776193362131494100,15.703494140625,1.1093311309814453,-0.07469511032104492,0.01594442129135132
1776193362147522000,15.71952197265625,1.4775581359863281,-0.05785965919494629,0.06003916263580322
1776193362163547600,15.735547607421875,1.8825531005859375,-0.18266701698303223,0.20207250118255615
1776193362179571000,15.751571044921874,1.7455329895019531,-0.24611520767211914,0.3715636432170868
1776193362195596500,15.767596435546874,1.0661907196044922,-0.1423511505126953,0.484786719083786
1776193362211624400,15.78362451171875,0.2458343505859375,0.03239130973815918,0.763992428779602
1776193362227651300,15.7996513671875,0.06359004974365234,0.22332406044006348,1.0997134447097778
1776193362243686700,15.815686767578125,1.0697669982910156,0.04574441909790039,1.1276524066925049
1776193362259713300,15.83171337890625,2.452935218811035,-0.6427055597305298,1.0318727493286133
1776193362275735000,15.847735107421874,3.2077341079711914,-1.1221678256988525,0.7359418869018555
1776193362291757300,15.86375732421875,2.656327247619629,-1.4395005702972412,0.44407516717910767
1776193362307783000,15.879782958984375,1.1012115478515625,-1.2850043773651123,0.29152435064315796
1776193362323808000,15.89580810546875,-0.5459575653076172,-0.861486554145813,0.3786955177783966
1776193362339833900,15.911833740234375,-1.6433582305908203,-0.6977196931838989,0.6704843640327454
1776193362355857200,15.927857177734374,-1.9740943908691406,-0.4117687940597534,0.964218020439148
1776193362371877400,15.94387744140625,-1.8210487365722656,-0.34924888610839844,1.224410057067871
1776193362387903700,15.95990380859375,-1.4933156967163086,-0.5994441509246826,1.6239272356033325
1776193362403932200,15.97593212890625,-1.1102943420410156,-0.7841986417770386,1.9759875535964966
1776193362427968500,15.999968505859375,-0.8344755172729492,-1.005385160446167,2.0327060222625732
1776193362443995000,16.015994873046875,-0.5687170028686523,-1.0931798219680786,1.9546533823013306
1776193362460014600,16.0320146484375,-0.35199928283691406,-1.0515203475952148,1.8714171648025513
1776193362476039700,16.048039794921873,-0.2018909454345703,-0.8970383405685425,1.6828759908676147
1776193362492062700,16.064062744140625,-0.10606956481933594,-0.7068533897399902,1.3790355920791626
1776193362508078600,16.08007861328125,-0.15079021453857422,-0.6077134609222412,1.0501892566680908
1776193362524095700,16.096095703125,-0.4784698486328125,-0.4780970811843872,1.0625736713409424
1776193362540114400,16.112114501953126,-1.1044597625732422,-0.2500462532043457,1.1581051349639893
1776193362556130800,16.128130859375,-1.7914814949035645,0.09045910835266113,1.229467749595642
1776193362572156400,16.144156494140624,-2.317861557006836,0.33695685863494873,1.3274927139282227
1776193362588179700,16.1601796875,-2.480668544769287,0.5753762722015381,1.226088047027588
1776193362604207000,16.17620703125,-2.3000340461730957,0.7315902709960938,1.1519497632980347
1776193362620234500,16.192234375,-2.0785937309265137,0.8874661922454834,1.2252554893493652
1776193362636252700,16.208252685546874,-1.7551379203796387,1.0143500566482544,1.1092883348464966
1776193362652273400,16.2242734375,-1.4267520904541016,1.0641021728515625,1.0048032999038696
1776193362668296700,16.240296630859376,-1.060934066772461,1.0587185621261597,1.0410350561141968
1776193362684321800,16.25632177734375,-0.7169942855834961,1.0236999988555908,1.158144474029541
1776193362700343300,16.27234326171875,-0.4499673843383789,1.0614542961120605,0.6441795825958252
1776193362716363000,16.288363037109374,-0.3227863311767578,1.0115551948547363,-0.057083696126937866
1776193362732383000,16.304383056640624,-0.170989990234375,0.8547639846801758,-0.5177215337753296
1776193362748407300,16.3204072265625,0.10779762268066406,0.8743658065795898,-0.8083301782608032
1776193362764430300,16.336430419921875,0.7078838348388672,0.9249633550643921,-0.7058440446853638
1776193362780454000,16.352453857421875,1.31585693359375,0.9045904874801636,-0.21152707934379578
1776193362796482300,16.368482421875,1.8361082077026367,0.8213920593261719,0.1747710108757019
1776193362812505900,16.384505859375,2.252645492553711,0.7295404672622681,0.3103640377521515
1776193362828532500,16.400532470703126,2.0975122451782227,0.6084665060043335,0.14994053542613983
1776193362844562400,16.4165625,1.8915691375732422,0.629491925239563,-0.2552590072154999
1776193362860591900,16.432591796875,2.0766077041625977,0.7353003025054932,-0.4988800585269928
1776193362876621000,16.44862109375,2.759659767150879,0.7793847322463989,-0.5686358213424683
1776193362892648700,16.464648681640625,3.5408544540405273,0.6287769079208374,-0.5807836055755615
1776193362908668400,16.48066845703125,4.002303123474121,0.29671525955200195,-0.5715099573135376
1776193362924692000,16.49669189453125,3.9809436798095703,-0.059793710708618164,-0.6028764247894287
1776193362940719400,16.51271923828125,3.5357789993286133,-0.3254650831222534,-0.5805610418319702
1776193362956746000,16.52874609375,2.6571035385131836,-0.41719019412994385,-0.5278686881065369
1776193362972773600,16.544773681640624,1.4205923080444336,-0.4024869203567505,-0.5934929847717285
1776193362988806700,16.560806640625,0.1692361831665039,-0.3724724054336548,-0.6930911540985107
1776193363004838000,16.576837890625,-0.7573270797729492,-0.3733835220336914,-0.6202227473258972
1776193363020869000,16.592869140625,-1.5959911346435547,-0.3473895788192749,-0.6037163734436035
1776193363036901600,16.608901611328125,-2.1876463890075684,-0.34699034690856934,-0.7247492074966431
1776193363052934700,16.6249345703125,-2.6026525497436523,-0.33402109146118164,-0.8547898530960083
1776193363068969500,16.640969482421873,-2.4510421752929688,-0.30303776264190674,-1.000612497329712
1776193363085006800,16.6570068359375,-1.8554186820983887,-0.5646747350692749,-1.00248384475708
1776193363101035800,16.673035888671876,-1.157571792602539,-0.8135290145874023,-0.863202691078186
1776193363117062100,16.689062255859376,-0.6202220916748047,-0.9778095483779907,-0.8254871368408203
1776193363133086700,16.705086669921876,-0.3359994888305664,-1.1445329189300537,-0.7000022530555725
1776193363149112600,16.721112548828124,-0.21818923950195312,-1.2144050598144531,-0.425825297832489
1776193363165141000,16.73714111328125,-0.21738433837890625,-1.2571721076965332,-0.3200288712978363
1776193363181167000,16.7531669921875,-0.18776607513427734,-1.338881015777588,-0.342698335647583
1776193363197190700,16.769190673828124,-0.2795438766479492,-1.3898781538009644,-0.3965938091278076
1776193363213214700,16.785214599609375,-0.47544384002685547,-1.3344645500183105,-0.523690938949585
1776193363229243000,16.801242919921876,-0.86151123046875,-1.3677630424499512,-0.7590078711509705
1776193363245271800,16.817271728515625,-1.2189655303955078,-1.3655505180358887,-0.8894181251525879
1776193363261305300,16.833305419921874,-1.548823356628418,-1.2784651517868042,-0.8772304654121399
1776193363277336000,16.849336181640624,-1.7334051132202148,-1.1879899501800537,-0.6828406453132629
1776193363293364200,16.8653642578125,-1.9087514877319336,-1.2071564197540283,-0.3934289813041687
1776193363309387300,16.88138720703125,-2.0723047256469727,-1.237138032913208,-0.16776859760284424
1776193363325405700,16.89740576171875,-1.9071779251098633,-1.1978960037231445,-0.033168405294418335
1776193363341423000,16.913423095703124,-1.6945738792419434,-1.2034803628921509,-0.15124940872192383
1776193363357446400,16.9294462890625,-1.3120393753051758,-1.2926313877105713,-0.30000364780426025
1776193363373463300,16.94546337890625,-0.8105936050415039,-1.3696902990341187,-0.5041030049324036
1776193363389485300,16.9614853515625,-0.4005575180053711,-1.4082329273223877,-0.5361857414245605
1776193363405507300,16.97750732421875,-0.17084407806396484,-1.3925176858901978,-0.42794325947761536
1776193363421532400,16.993532470703126,-0.0370025634765625,-1.2209391593933105,-0.1368643343448639
1776193363437556200,17.00955615234375,0.16533756256103516,-0.9536757469177246,0.34392744302749634
1776193363453581800,17.025581787109374,0.26076412200927734,-0.6666990518569946,0.7653698921203613
1776193363469605600,17.041605712890625,0.1434946060180664,-0.4820939302444458,1.0442066192626953
1776193363485636900,17.057636962890626,0.060584068298339844,-0.3820134401321411,1.0970990657806396
1776193363501666300,17.073666259765623,0.26051998138427734,-0.09936940670013428,1.076723337173462
1776193363517692700,17.089692626953124,0.8901777267456055,0.3279465436935425,1.3029999732971191
1776193363533721600,17.1057216796875,1.4316205978393555,0.43060386180877686,1.5558241605758667
1776193363549746000,17.121745849609376,1.7475299835205078,0.40721940994262695,1.7887471914291382
1776193363565769700,17.137769775390623,1.9346542358398438,0.4962923526763916,1.9069546461105347
1776193363581796400,17.15379638671875,2.4885549545288086,0.6536802053451538,1.9271206855773926
1776193363597822000,17.169822021484375,3.347073554992676,0.4098769426345825,2.08070707321167
1776193363613842700,17.1858427734375,4.562034606933594,-0.05471444129943848,1.992933988571167
1776193363629859800,17.20185986328125,5.436300277709961,-0.5921595692634583,1.8175709247589111
1776193363645878500,17.21787841796875,5.504528045654297,-1.0581834316253662,1.6425420045852661
1776193363661906700,17.23390673828125,4.182709693908691,-1.2393094301223755,1.4314695596694946
1776193363677928700,17.2499287109375,2.075441360473633,-0.9952407479286194,1.493675947189331
1776193363693954300,17.265954345703125,-0.1715240478515625,-0.5763387680053711,2.0233500003814697
1776193363709981400,17.2819814453125,-1.730891227722168,-0.4080052375793457,2.7300596237182617
1776193363726001200,17.298001220703124,-2.5906729698181152,-0.17970645427703857,3.413865566253662
1776193363742017300,17.314017333984374,-2.8730053901672363,-0.1502680778503418,3.8862621784210205
1776193363758044000,17.3300439453125,-2.9097437858581543,-0.43080246448516846,4.138027191162109
1776193363774069500,17.346069580078126,-2.8255348205566406,-0.8536517024040222,3.9782402515411377
1776193363790093800,17.36209375,-2.5835671424865723,-1.2900238037109375,3.6220033168792725
1776193363806121700,17.378121826171874,-2.409212112426758,-1.4229604005813599,3.066368579864502
1776193363822150000,17.39414990234375,-2.0507335662841797,-1.144789218902588,2.3627140522003174
1776193363838173400,17.41017333984375,-1.3278331756591797,-0.9611806869506836,1.6434699296951294
1776193363854199800,17.42619970703125,-0.45342350006103516,-0.9602344036102295,1.3340498208999634
1776193363870229200,17.442229248046875,0.07828330993652344,-1.0855427980422974,1.1638970375061035
1776193363886253000,17.458253173828126,0.07207107543945312,-1.1594386100769043,0.915850818157196
1776193363902281500,17.474281494140627,0.12368011474609375,-0.9777551293373108,0.5510631799697876
1776193363918305800,17.490305908203126,0.1924877166748047,-0.626397967338562,0.2555569112300873
1776193363934334000,17.506333984375,-0.1280498504638672,-0.23928183317184448,0.1439359188079834
1776193363950353700,17.522353759765625,-0.7303190231323242,0.13839542865753174,0.2714517116546631
1776193363966375200,17.538375244140624,-1.2760839462280273,0.4714086055755615,0.37306922674179077
1776193363982400500,17.554400390625,-1.6735124588012695,0.6294541358947754,0.2973824143409729
1776193363998425300,17.57042529296875,-1.8064627647399902,0.7086368799209595,0.10896718502044678
1776193364014452000,17.586451904296876,-1.672877311706543,0.7642943859100342,-0.07547277212142944
1776193364030475500,17.6024755859375,-1.2863264083862305,0.8145257234573364,-0.1658932864665985
1776193364046495000,17.618494873046874,-0.9638299942016602,0.8892980813980103,-0.21982359886169434
1776193364062515200,17.63451513671875,-1.036982536315918,1.1211028099060059,-0.4030083417892456
1776193364078537700,17.650537841796876,-0.9367561340332031,1.438474416732788,-1.0407590866088867
1776193364094563000,17.66656298828125,-0.5224857330322266,1.4683973789215088,-1.3399498462677002
1776193364110587000,17.6825869140625,-0.07623863220214844,1.4920616149902344,-1.0624618530273438
1776193364126615000,17.698614990234375,0.4979972839355469,1.6248722076416016,-0.8003467321395874
1776193364142638300,17.714638427734375,1.3723640441894531,1.5087976455688477,-0.9025875329971313
1776193364158660000,17.73066015625,2.295530319213867,0.9007814526557922,-1.3896372318267822
1776193364174686000,17.74668603515625,3.03920841217041,0.5353926420211792,-1.6694490909576416
1776193364190711800,17.7627119140625,3.228999137878418,0.5920445322990417,-1.811741828918457
1776193364206731500,17.7787314453125,3.068868637084961,0.7564401030540466,-1.7108867168426514
1776193364222749000,17.7947490234375,2.9518165588378906,1.1489986181259155,-1.6201503276824951
1776193364238769700,17.810769775390625,2.9988203048706055,1.3299036026000977,-1.3045445680618286
1776193364254789400,17.826789306640624,2.9405269622802734,1.1668468713760376,-0.770099401473999
1776193364270815700,17.842815673828124,3.2485694885253906,0.6526707410812378,-0.46372687816619873
1776193364286832400,17.858832275390625,3.7907657623291016,-0.07596242427825928,-0.48588621616363525
1776193364302853400,17.874853271484376,3.9189510345458984,-0.47782403230667114,-0.801140546798706
1776193364318870800,17.890870849609374,3.4131460189819336,-0.8336513042449951,-0.6592820882797241
1776193364334889500,17.906889404296876,2.2567052841186523,-0.9554665088653564,-0.4904717206954956
1776193364350908200,17.922908203125,0.9710111618041992,-0.7635795474052429,-0.5726989507675171
1776193364366926800,17.9389267578125,-0.2275075912475586,-0.7994875907897949,-0.5474072694778442
1776193364382946800,17.95494677734375,-1.1441230773925781,-0.7250995635986328,-0.7338815927505493
1776193364398970600,17.970970703125,-1.6681294441223145,-0.7181401252746582,-0.7007870674133301
1776193364414988500,17.986988525390625,-1.7948646545410156,-0.7699401378631592,-0.5004756450653076
1776193364431010000,18.003010009765624,-1.7016472816467285,-0.9213316440582275,-0.28732597827911377
1776193364447032800,18.01903271484375,-1.655245304107666,-1.1858032941818237,-0.16078293323516846
1776193364471058200,18.04305810546875,-1.5968785285949707,-1.538805365562439,-0.2141256332397461
1776193364487079000,18.059078857421873,-1.5563440322875977,-1.7117884159088135,-0.2898796796798706
1776193364503101700,18.075101806640625,-1.4262232780456543,-1.7756092548370361,-0.36335456371307373
1776193364519122700,18.091122802734375,-1.409116268157959,-1.8070127964019775,-0.4574437141418457
1776193364535142700,18.107142578125,-1.3750619888305664,-1.811607003211975,-0.5534604787826538
1776193364551164400,18.123164306640625,-1.4765195846557617,-1.767918586730957,-0.5803781747817993
1776193364567188700,18.139188720703125,-1.7789502143859863,-1.676045298576355,-0.6241296529769897
1776193364583208200,18.155208251953123,-2.0838942527770996,-1.5063620805740356,-0.5199912786483765
1776193364599232000,18.17123193359375,-2.2490649223327637,-1.4092538356781006,-0.3395288586616516
1776193364615253500,18.18725341796875,-1.9740915298461914,-1.4709330797195435,-0.34130316972732544
1776193364631270700,18.203270751953124,-1.4658761024475098,-1.551137924194336,-0.44886231422424316
1776193364647291600,18.219291748046874,-1.309920310974121,-1.5439965724945068,-0.43436312675476074
1776193364663315200,18.235315185546874,-1.2847890853881836,-1.474611520767212,-0.5228255987167358
1776193364679338800,18.2513388671875,-1.3875179290771484,-1.2990702390670776,-0.5214435458183289
1776193364695370500,18.26737060546875,-1.4992504119873047,-1.085911512374878,-0.5222688913345337
1776193364711400200,18.283400146484375,-1.5605707168579102,-0.846602201461792,-0.5806249380111694
1776193364727424800,18.2994248046875,-1.5016732215881348,-0.6482518911361694,-0.5994184017181396
1776193364743447800,18.31544775390625,-1.2233238220214844,-0.4038364887237549,-0.6281258463859558
1776193364759474700,18.331474609375,-0.9561014175415039,-0.15580511093139648,-0.6457377672195435
1776193364775501600,18.34750146484375,-0.7368440628051758,0.14547967910766602,-0.6333844661712646
1776193364791524000,18.363524169921874,-0.6256608963012695,0.383603572845459,-0.6062314510345459
1776193364807542500,18.37954248046875,-0.4238452911376953,0.6457273960113525,-0.5555744171142578
1776193364823563500,18.3955634765625,-0.043631553649902344,0.7583811283111572,-0.4344577193260193
1776193364839584000,18.411583984375,0.26982593536376953,0.8853532075881958,-0.3523085117340088
1776193364855601000,18.427600830078124,0.5369062423706055,0.8424111604690552,-0.0931597352027893
1776193364871623200,18.443623046875,0.9663982391357422,0.5292056798934937,0.49088600277900696
1776193364887644400,18.45964453125,1.7284965515136719,0.5484504699707031,0.59063720703125
1776193364903662800,18.475662841796876,2.5537023544311523,0.5138821601867676,0.4383261203765869
1776193364919681800,18.491681884765626,2.577421188354492,0.4898184537887573,0.5461360812187195
1776193364935702300,18.507702392578125,2.1893911361694336,0.9006657600402832,0.8203439712524414
1776193364951725300,18.523725341796876,2.0881576538085938,1.4075275659561157,1.0938951969146729
1776193364967749000,18.5397490234375,1.9654064178466797,1.4932633638381958,1.0844799280166626
1776193364983772700,18.555772705078127,1.6417045593261719,1.4491180181503296,0.8764761090278625
1776193364999794700,18.571794677734374,1.2971973419189453,1.4995235204696655,0.7263931035995483
1776193365015818500,18.587818603515625,1.496830940246582,1.2357927560806274,0.8352341651916504
1776193365031843600,18.603843505859373,2.3396453857421875,0.5658539533615112,0.35289210081100464
1776193365047867400,18.619867431640625,3.269026756286621,-0.14084815979003906,-0.3994189500808716
1776193365063888000,18.635887939453124,3.408299446105957,-0.92496657371521,-0.587030291557312
1776193365079908400,18.651908447265626,2.4202518463134766,-1.3037227392196655,-0.19955313205718994
1776193365095929900,18.667929931640625,0.8132305145263672,-1.1183528900146484,0.261227548122406
1776193365111944700,18.68394482421875,-0.5190134048461914,-1.0222680568695068,0.8129596710205078
1776193365127965400,18.69996533203125,-1.4976043701171875,-0.9710239171981812,1.1258363723754883
1776193365143980500,18.71598046875,-1.954951286315918,-0.9241654872894287,1.4238768815994263
1776193365159998700,18.731998779296877,-2.061866283416748,-1.0220916271209717,1.7801693677902222
1776193365176017700,18.748017578125,-1.9612555503845215,-1.0605638027191162,2.089317560195923
1776193365192038400,18.764038330078126,-1.8636984825134277,-1.0302050113677979,2.2986507415771484
1776193365208062500,18.7800625,-1.7098321914672852,-1.1578067541122437,2.3563132286071777
1776193365224085800,18.796085693359377,-1.3678531646728516,-1.4327529668807983,2.0673410892486572
1776193365240110800,18.81211083984375,-0.9223699569702148,-1.7054524421691895,1.314998984336853
1776193365256135400,18.828135498046876,-0.31895923614501953,-1.9881236553192139,0.6444869041442871
1776193365272161500,18.84416162109375,0.3309164047241211,-2.185260534286499,0.12330138683319092
1776193365288192300,18.860192138671874,0.4842033386230469,-2.0616040229797363,-0.27170655131340027
1776193365304220400,18.876220458984374,-0.021498680114746094,-1.7920337915420532,-0.3293451964855194
1776193365320249600,18.89224951171875,-0.8336124420166016,-1.4632420539855957,-0.1550937294960022
1776193365336274200,18.908274169921874,-1.4347171783447266,-1.0709612369537354,-0.027572989463806152
1776193365352301300,18.92430126953125,-1.745898723602295,-0.7237676382064819,0.16857224702835083
1776193365368332500,18.94033251953125,-1.902923583984375,-0.42189884185791016,0.3054289221763611
1776193365384361700,18.95636181640625,-1.968489646911621,-0.1233067512512207,0.555749237537384
1776193365400390100,18.97239013671875,-1.6896748542785645,-0.003708958625793457,0.6210917234420776
1776193365416417300,18.988417236328125,-1.384425163269043,0.017480134963989258,0.6461759209632874
1776193365432447700,19.00444775390625,-1.0755062103271484,0.1095815896987915,0.4920637011528015
1776193365448471600,19.020471435546874,-0.7312211990356445,0.29850292205810547,0.4738531708717346
1776193365464493800,19.036493896484377,-0.561518669128418,0.46750855445861816,0.4938727617263794
1776193365480516000,19.05251611328125,-0.2930927276611328,0.6460620164871216,0.3630339801311493
1776193365496541400,19.06854150390625,-0.00089263916015625,0.8355405330657959,0.24580273032188416
1776193365512564700,19.084564697265623,0.20025634765625,1.0005877017974854,0.09443438053131104
1776193365528589800,19.10058984375,0.26425743103027344,1.108259916305542,-0.0958704948425293
1776193365544614400,19.116614501953126,0.3804893493652344,1.2477099895477295,-0.26635777950286865
1776193365560631600,19.132631591796876,0.4291048049926758,1.347896933555603,-0.20309990644454956
1776193365576650000,19.14864990234375,0.4116706848144531,1.4718332290649414,0.01339346170425415
1776193365592676900,19.1646767578125,0.32579708099365234,1.5194462537765503,0.07828527688980103
1776193365608698600,19.18069873046875,0.5059270858764648,1.4637442827224731,0.17796319723129272
1776193365624718300,19.19671826171875,0.5505609512329102,1.4117329120635986,0.11687153577804565
1776193365640744200,19.212744140625,0.44959259033203125,1.3764054775238037,-0.04304081201553345
1776193365656768300,19.228768310546876,0.7139186859130859,1.263708472251892,-0.14464271068572998
1776193365672790500,19.24479052734375,1.2586383819580078,1.1066763401031494,-0.30082613229751587
1776193365688811300,19.260811279296874,1.439849853515625,1.0584068298339844,-0.448541522026062
1776193365704829000,19.276828857421876,1.2050495147705078,1.172221064567566,-0.7382771372795105
1776193365720851200,19.292851318359375,1.357802391052246,1.4741069078445435,-1.1092867851257324
1776193365736879400,19.30887939453125,1.9677104949951172,1.512457251548767,-1.0401842594146729
1776193365752906200,19.32490625,2.6023454666137695,1.3136053085327148,-0.7204631567001343
1776193365768931800,19.340931884765624,3.3156471252441406,0.7447385787963867,-0.46937817335128784
1776193365784954400,19.356954345703127,3.7334070205688477,-0.29709839820861816,-0.3599269390106201
1776193365800983300,19.3729833984375,3.7132673263549805,-1.0209307670593262,-0.7320162057876587
1776193365817010200,19.38901025390625,3.316122055053711,-1.3153297901153564,-0.9349050521850586
1776193365833035300,19.40503515625,2.592604637145996,-1.486369013786316,-0.4829094409942627
1776193365849057500,19.4210576171875,1.111912727355957,-1.4216136932373047,-0.21680119633674622
1776193365865086000,19.4370859375,-0.5474824905395508,-1.423266887664795,-0.3628212809562683
1776193365881107700,19.453107666015626,-2.0299220085144043,-1.5080883502960205,-0.5374629497528076
1776193365897130000,19.4691298828125,-2.789670944213867,-1.4109395742416382,-0.7930353283882141
1776193365913151200,19.485151123046876,-2.902097225189209,-1.2662845849990845,-1.0947480201721191
1776193365929174000,19.501174072265623,-2.564582347869873,-1.1731146574020386,-1.0966986417770386
1776193365945194800,19.51719482421875,-2.108922004699707,-1.1420222520828247,-0.9668486714363098
1776193365961215500,19.533215576171877,-1.492469310760498,-1.2972956895828247,-0.8820298314094543
1776193365977235000,19.54923486328125,-0.8407411575317383,-1.3853278160095215,-0.971160888671875
1776193365993257200,19.56525732421875,-0.18401622772216797,-1.5932005643844604,-1.1604924201965332
1776193366009279700,19.58127978515625,0.3838844299316406,-1.798866868019104,-1.2368673086166382
1776193366025304000,19.597303955078125,0.8001041412353516,-1.9711410999298096,-1.2920554876327515
1776193366041321700,19.61332177734375,0.9357013702392578,-2.0453712940216064,-1.2549207210540771
1776193366057337900,19.629337890625,0.48615169525146484,-2.061993360519409,-1.1115174293518066
1776193366073357800,19.64535791015625,-0.32785892486572266,-1.9579331874847412,-1.0808430910110474
1776193366089377000,19.661376953125,-1.195826530456543,-1.770272970199585,-1.1281964778900146
1776193366105395500,19.6773955078125,-1.775184154510498,-1.5934234857559204,-1.0935604572296143
1776193366121414100,19.6934140625,-1.8666586875915527,-1.5104320049285889,-0.9512553215026855
1776193366137431300,19.709431396484376,-1.8220257759094238,-1.4403297901153564,-0.9428848624229431
1776193366153454600,19.72545458984375,-1.9868526458740234,-1.316273808479309,-0.9306871891021729
1776193366169479700,19.741479736328124,-2.1998119354248047,-1.092929720878601,-0.8130131959915161
1776193366185499600,19.757499755859374,-2.1301345825195312,-0.9144883155822754,-0.7132811546325684
1776193366201519900,19.773519775390625,-1.6732392311096191,-0.7275452613830566,-0.5249273777008057
1776193366217548500,19.789548583984374,-1.126516342163086,-0.6158745288848877,-0.38190051913261414
